"","X","Subject","Trial","Stimulus","Block","RT","ACC","condition","yearofbirth","cTrial","older","RTlog","WordAge"
"1",1,101,3,"dental",7,564,1,"youngreal",1992,-1.42262897685245,"no",6.33682573114644,"oldword"
"2",2,101,4,"dye",2,505,1,"iso",1992,-1.3992103725035,"no",6.22653666928747,"youngword"
"3",3,101,5,"pencils",7,571,1,"youngreal",1992,-1.37579176815454,"no",6.3491389913798,"oldword"
"4",4,101,5,"fridge",2,563,1,"iso",1992,-1.37579176815454,"no",6.33505425149806,"youngword"
"5",5,101,6,"respected",7,507,1,"youngreal",1992,-1.35237316380559,"no",6.23048144757848,"oldword"
"6",6,101,6,"respected",7,507,1,"youngreal",1992,-1.35237316380559,"no",6.23048144757848,"oldword"
"7",7,101,7,"whistle",7,556,1,"youngreal",1992,-1.32895455945663,"no",6.32256523992728,"oldword"
"8",8,101,8,"pencils",4,501,1,"oldreal",1992,-1.30553595510768,"no",6.21860011969173,"oldword"
"9",9,101,8,"fireworks",2,510,1,"iso",1992,-1.30553595510768,"no",6.2363695902037,"oldword"
"10",10,101,11,"reckon",7,591,1,"youngreal",1992,-1.23528014206082,"no",6.38350663488401,"youngword"
"11",11,101,12,"recite",2,669,1,"iso",1992,-1.21186153771186,"no",6.50727771238501,"oldword"
"12",12,101,14,"willow",4,464,1,"oldreal",1992,-1.16502432901395,"no",6.14203740558736,"oldword"
"13",13,101,15,"libraries",2,594,1,"iso",1992,-1.141605724665,"no",6.38856140554563,"oldword"
"14",14,101,18,"nicest",2,610,1,"iso",1992,-1.07134991161813,"no",6.4150969591716,"youngword"
"15",15,101,18,"dental",4,546,1,"oldreal",1992,-1.07134991161813,"no",6.30444880242198,"oldword"
"16",16,101,19,"environment",4,500,1,"oldreal",1992,-1.04793130726918,"no",6.21660610108486,"youngword"
"17",17,101,19,"environment",4,500,1,"oldreal",1992,-1.04793130726918,"no",6.21660610108486,"youngword"
"18",18,101,20,"seventh",7,765,1,"youngreal",1992,-1.02451270292023,"no",6.64118216974059,"youngword"
"19",19,101,21,"lifestyle",2,542,1,"iso",1992,-1.00109409857127,"no",6.29710931993394,"youngword"
"20",20,101,24,"lifting",4,584,1,"oldreal",1992,-0.930838285524407,"no",6.37161184723186,"youngword"
"21",21,101,25,"miners",4,704,1,"oldreal",1992,-0.907419681175452,"no",6.55819780281227,"oldword"
"22",22,101,27,"survival",2,702,1,"iso",1992,-0.860582472477543,"no",6.55535689181067,"youngword"
"23",23,101,27,"bitten",7,697,1,"youngreal",1992,-0.860582472477543,"no",6.54821910276237,"youngword"
"24",24,101,31,"silent",2,700,1,"iso",1992,-0.766908055081724,"no",6.55250788703459,"oldword"
"25",25,101,31,"permission",7,741,1,"youngreal",1992,-0.766908055081724,"no",6.60934924316738,"oldword"
"26",26,101,32,"recite",7,677,1,"youngreal",1992,-0.74348945073277,"no",6.5191472879404,"oldword"
"27",27,101,32,"recite",7,677,1,"youngreal",1992,-0.74348945073277,"no",6.5191472879404,"oldword"
"28",28,101,32,"expensive",2,654,1,"iso",1992,-0.74348945073277,"no",6.48463523563525,"youngword"
"29",29,101,32,"expensive",2,654,1,"iso",1992,-0.74348945073277,"no",6.48463523563525,"youngword"
"30",30,101,33,"whistle",2,586,1,"iso",1992,-0.720070846383815,"no",6.3750248198281,"oldword"
"31",31,101,33,"whistle",2,586,1,"iso",1992,-0.720070846383815,"no",6.3750248198281,"oldword"
"32",32,101,34,"fried",2,594,1,"iso",1992,-0.69665224203486,"no",6.38856140554563,"oldword"
"33",33,101,35,"confectionery",2,625,1,"iso",1992,-0.673233637685906,"no",6.4393503711001,"oldword"
"34",34,101,35,"dye",4,558,1,"oldreal",1992,-0.673233637685906,"no",6.3261494731551,"youngword"
"35",35,101,36,"respected",4,495,1,"oldreal",1992,-0.649815033336951,"no",6.20657592672493,"oldword"
"36",36,101,36,"respected",4,495,1,"oldreal",1992,-0.649815033336951,"no",6.20657592672493,"oldword"
"37",37,101,38,"permission",2,563,1,"iso",1992,-0.602977824639042,"no",6.33505425149806,"oldword"
"38",38,101,39,"intellectual",7,691,1,"youngreal",1992,-0.579559220290087,"no",6.53958595561767,"youngword"
"39",39,101,43,"delivered",2,542,1,"iso",1992,-0.485884802894269,"no",6.29710931993394,"oldword"
"40",40,101,44,"video",2,520,1,"iso",1992,-0.462466198545314,"no",6.25575004175337,"youngword"
"41",41,101,45,"spirits",7,748,1,"youngreal",1992,-0.43904759419636,"no",6.61873898351722,"youngword"
"42",42,101,45,"reckon",2,545,1,"iso",1992,-0.43904759419636,"no",6.30261897574491,"youngword"
"43",43,101,46,"miners",7,627,1,"youngreal",1992,-0.415628989847405,"no",6.4425401664682,"oldword"
"44",44,101,46,"miners",7,627,1,"youngreal",1992,-0.415628989847405,"no",6.4425401664682,"oldword"
"45",45,101,46,"guide",2,475,1,"iso",1992,-0.415628989847405,"no",6.16541785423142,"youngword"
"46",46,101,46,"guide",2,475,1,"iso",1992,-0.415628989847405,"no",6.16541785423142,"youngword"
"47",47,101,47,"lifestyle",7,577,1,"youngreal",1992,-0.39221038549845,"no",6.35957386867238,"youngword"
"48",48,101,47,"lifestyle",7,577,1,"youngreal",1992,-0.39221038549845,"no",6.35957386867238,"youngword"
"49",49,101,48,"spirits",2,521,1,"iso",1992,-0.368791781149496,"no",6.25766758788264,"youngword"
"50",50,101,49,"bitten",2,502,1,"iso",1992,-0.345373176800541,"no",6.22059017009974,"youngword"
"51",51,101,49,"depressing",4,636,1,"oldreal",1992,-0.345373176800541,"no",6.45676965557216,"youngword"
"52",52,101,50,"hymns",7,616,1,"youngreal",1992,-0.321954572451587,"no",6.42486902390539,"oldword"
"53",53,101,50,"hymns",7,616,1,"youngreal",1992,-0.321954572451587,"no",6.42486902390539,"oldword"
"54",54,101,51,"fridge",4,570,1,"oldreal",1992,-0.298535968102632,"no",6.34738920965601,"youngword"
"55",55,101,53,"depressing",2,610,1,"iso",1992,-0.251698759404723,"no",6.4150969591716,"youngword"
"56",56,101,54,"electricity",2,681,1,"iso",1992,-0.228280155055768,"no",6.52502965784346,"oldword"
"57",57,101,55,"impressive",2,588,1,"iso",1992,-0.204861550706813,"no",6.37842618365159,"youngword"
"58",58,101,56,"frighten",7,757,1,"youngreal",1992,-0.181442946357859,"no",6.63068338564237,"oldword"
"59",59,101,56,"pencils",2,563,1,"iso",1992,-0.181442946357859,"no",6.33505425149806,"oldword"
"60",60,101,59,"libraries",7,631,1,"youngreal",1992,-0.111187133310995,"no",6.44888939414686,"oldword"
"61",61,101,60,"mittens",4,858,1,"oldreal",1992,-0.0877685289620404,"no",6.75576892198425,"oldword"
"62",62,101,61,"environment",2,632,1,"iso",1992,-0.0643499246130858,"no",6.45047042214418,"youngword"
"63",63,101,63,"stress",2,515,1,"iso",1992,-0.0175127159151765,"no",6.24610676548156,"youngword"
"64",64,101,64,"willow",2,494,1,"iso",1992,0.00590588843377808,"no",6.20455776256869,"oldword"
"65",65,101,64,"chemistry",4,599,1,"oldreal",1992,0.00590588843377808,"no",6.39692965521615,"youngword"
"66",66,101,65,"delivered",4,558,1,"oldreal",1992,0.0293244927827327,"no",6.3261494731551,"oldword"
"67",67,101,65,"delivered",4,558,1,"oldreal",1992,0.0293244927827327,"no",6.3261494731551,"oldword"
"68",68,101,65,"frighten",2,513,1,"iso",1992,0.0293244927827327,"no",6.24222326545517,"oldword"
"69",69,101,65,"frighten",2,513,1,"iso",1992,0.0293244927827327,"no",6.24222326545517,"oldword"
"70",70,101,66,"seventh",2,460,1,"iso",1992,0.0527430971316873,"no",6.13339804299665,"youngword"
"71",71,101,66,"seventh",2,460,1,"iso",1992,0.0527430971316873,"no",6.13339804299665,"youngword"
"72",72,101,67,"beg",2,512,1,"iso",1992,0.0761617014806419,"no",6.24027584517077,"oldword"
"73",73,101,68,"physics",2,498,1,"iso",1992,0.0995803058295965,"no",6.21260609575152,"youngword"
"74",74,101,69,"dental",2,414,1,"iso",1992,0.122998910178551,"no",6.0282785202307,"oldword"
"75",75,101,69,"fireworks",4,795,1,"oldreal",1992,0.122998910178551,"no",6.67959918584438,"oldword"
"76",76,101,70,"confectionery",4,674,1,"oldreal",1992,0.146417514527506,"no",6.51471269087253,"oldword"
"77",77,101,70,"confectionery",4,674,1,"oldreal",1992,0.146417514527506,"no",6.51471269087253,"oldword"
"78",78,101,70,"idle",7,690,1,"youngreal",1992,0.146417514527506,"no",6.53813982376767,"oldword"
"79",79,101,70,"idle",7,690,1,"youngreal",1992,0.146417514527506,"no",6.53813982376767,"oldword"
"80",80,101,73,"mittens",2,576,0,"iso",1992,0.21667332757437,"no",6.3578422665081,"oldword"
"81",81,101,73,"stress",4,812,1,"oldreal",1992,0.21667332757437,"no",6.70073110954781,"youngword"
"82",82,101,74,"intellectual",2,627,1,"iso",1992,0.240091931923324,"no",6.4425401664682,"youngword"
"83",83,101,74,"intellectual",2,627,1,"iso",1992,0.240091931923324,"no",6.4425401664682,"youngword"
"84",84,101,74,"guide",7,604,1,"youngreal",1992,0.240091931923324,"no",6.40522845803084,"youngword"
"85",85,101,74,"guide",7,604,1,"youngreal",1992,0.240091931923324,"no",6.40522845803084,"youngword"
"86",86,101,75,"chemistry",2,513,1,"iso",1992,0.263510536272279,"no",6.24222326545517,"youngword"
"87",87,101,75,"chemistry",2,513,1,"iso",1992,0.263510536272279,"no",6.24222326545517,"youngword"
"88",88,101,79,"lifting",2,499,1,"iso",1992,0.357184953668097,"no",6.21460809842219,"youngword"
"89",89,101,81,"permission",4,698,1,"oldreal",1992,0.404022162366007,"no",6.54965074223381,"oldword"
"90",90,101,82,"fireworks",7,546,1,"youngreal",1992,0.427440766714961,"no",6.30444880242198,"oldword"
"91",91,101,82,"physics",4,525,1,"oldreal",1992,0.427440766714961,"no",6.26530121273771,"youngword"
"92",92,101,84,"confectionery",7,838,1,"youngreal",1992,0.47427797541287,"no",6.73221070646721,"oldword"
"93",93,101,85,"video",4,586,1,"oldreal",1992,0.497696579761825,"no",6.3750248198281,"youngword"
"94",94,101,86,"fridge",7,682,1,"youngreal",1992,0.52111518411078,"no",6.52649485957079,"youngword"
"95",95,101,90,"frighten",4,698,1,"oldreal",1992,0.614789601506598,"no",6.54965074223381,"oldword"
"96",96,101,93,"guide",4,759,1,"oldreal",1992,0.685045414553462,"no",6.63331843328038,"youngword"
"97",97,101,94,"whistle",4,448,1,"oldreal",1992,0.708464018902417,"no",6.10702288774225,"oldword"
"98",98,101,95,"beg",7,527,1,"youngreal",1992,0.731882623251371,"no",6.26909628370626,"oldword"
"99",99,101,96,"recite",4,531,1,"oldreal",1992,0.755301227600326,"no",6.27664348934164,"oldword"
"100",100,101,98,"mittens",7,843,1,"youngreal",1992,0.802138436298235,"no",6.73815249459596,"oldword"
"101",101,101,98,"reckon",4,602,1,"oldreal",1992,0.802138436298235,"no",6.40191719672719,"youngword"
"102",102,101,101,"impressive",4,652,1,"oldreal",1992,0.872394249345099,"no",6.48157712927643,"youngword"
"103",103,101,102,"libraries",4,613,1,"oldreal",1992,0.895812853694054,"no",6.41999492814714,"oldword"
"104",104,101,103,"intellectual",4,527,1,"oldreal",1992,0.919231458043008,"no",6.26909628370626,"youngword"
"105",105,101,105,"seventh",4,544,1,"oldreal",1992,0.966068666740917,"no",6.30078579466324,"youngword"
"106",106,101,107,"electricity",4,568,1,"oldreal",1992,1.01290587543883,"no",6.34388043412633,"oldword"
"107",107,101,108,"silent",7,730,1,"youngreal",1992,1.03632447978778,"no",6.59441345974978,"oldword"
"108",108,101,110,"impressive",7,830,1,"youngreal",1992,1.08316168848569,"no",6.72262979485545,"youngword"
"109",109,101,111,"delivered",7,523,1,"youngreal",1992,1.10658029283465,"no",6.26149168432104,"oldword"
"110",110,101,116,"video",7,658,1,"youngreal",1992,1.22367331457942,"no",6.49072353450251,"youngword"
"111",111,101,119,"fried",4,675,1,"oldreal",1992,1.29392912762628,"no",6.51619307604296,"oldword"
"112",112,101,120,"survival",4,542,1,"oldreal",1992,1.31734773197524,"no",6.29710931993394,"youngword"
"113",113,101,121,"hymns",4,487,1,"oldreal",1992,1.34076633632419,"no",6.19031540585315,"oldword"
"114",114,101,122,"depressing",7,573,1,"youngreal",1992,1.36418494067315,"no",6.35262939631957,"youngword"
"115",115,101,124,"nicest",4,702,1,"oldreal",1992,1.41102214937106,"no",6.55535689181067,"youngword"
"116",116,101,127,"lifestyle",4,579,1,"oldreal",1992,1.48127796241792,"no",6.36302810354046,"youngword"
"117",117,101,130,"silent",4,628,0,"oldreal",1992,1.55153377546478,"no",6.44413125670044,"oldword"
"118",118,101,134,"willow",7,668,1,"youngreal",1992,1.6452081928606,"no",6.50578406012823,"oldword"
"119",119,101,134,"expensive",4,591,1,"oldreal",1992,1.6452081928606,"no",6.38350663488401,"youngword"
"120",120,101,135,"bitten",4,527,1,"oldreal",1992,1.66862679720956,"no",6.26909628370626,"youngword"
"121",121,101,135,"bitten",4,527,1,"oldreal",1992,1.66862679720956,"no",6.26909628370626,"youngword"
"122",122,101,135,"environment",7,591,1,"youngreal",1992,1.66862679720956,"no",6.38350663488401,"youngword"
"123",123,101,135,"environment",7,591,1,"youngreal",1992,1.66862679720956,"no",6.38350663488401,"youngword"
"124",124,101,136,"nicest",7,591,1,"youngreal",1992,1.69204540155851,"no",6.38350663488401,"youngword"
"125",125,101,136,"nicest",7,591,1,"youngreal",1992,1.69204540155851,"no",6.38350663488401,"youngword"
"126",126,101,141,"dye",7,583,1,"youngreal",1992,1.80913842330328,"no",6.36990098282823,"youngword"
"127",127,101,142,"expensive",7,591,1,"youngreal",1992,1.83255702765224,"no",6.38350663488401,"youngword"
"128",128,101,146,"lifting",7,648,1,"youngreal",1992,1.92623144504806,"no",6.47543271670409,"youngword"
"129",129,101,148,"survival",7,556,1,"youngreal",1992,1.97306865374597,"no",6.32256523992728,"youngword"
"130",130,101,149,"beg",4,663,1,"oldreal",1992,1.99648725809492,"no",6.49828214947643,"oldword"
"131",131,101,151,"idle",4,762,1,"oldreal",1992,2.04332446679283,"no",6.63725803128446,"oldword"
"132",132,101,154,"fried",7,646,1,"youngreal",1992,2.11358027983969,"no",6.4723462945009,"oldword"
"133",133,101,156,"stress",7,616,1,"youngreal",1992,2.1604174885376,"no",6.42486902390539,"youngword"
"134",134,101,159,"electricity",7,713,1,"youngreal",1992,2.23067330158447,"no",6.57088296233958,"oldword"
"135",135,101,160,"physics",7,530,1,"youngreal",1992,2.25409190593342,"no",6.27476202124194,"youngword"
"136",136,102,2,"expensive",4,797,1,"oldreal",1993,-1.44604758120141,"no",6.68210859744981,"youngword"
"137",137,102,3,"recite",2,729,1,"iso",1993,-1.42262897685245,"no",6.59304453414244,"oldword"
"138",138,102,6,"fridge",4,523,1,"oldreal",1993,-1.35237316380559,"no",6.26149168432104,"youngword"
"139",139,102,8,"bitten",4,774,1,"oldreal",1993,-1.30553595510768,"no",6.65286302935335,"youngword"
"140",140,102,8,"miners",7,771,1,"youngreal",1993,-1.30553595510768,"no",6.64898455002478,"oldword"
"141",141,102,9,"frighten",7,579,1,"youngreal",1993,-1.28211735075873,"no",6.36302810354046,"oldword"
"142",142,102,9,"frighten",7,579,1,"youngreal",1993,-1.28211735075873,"no",6.36302810354046,"oldword"
"143",143,102,9,"environment",2,670,1,"iso",1993,-1.28211735075873,"no",6.50876913697168,"youngword"
"144",144,102,9,"environment",2,670,1,"iso",1993,-1.28211735075873,"no",6.50876913697168,"youngword"
"145",145,102,10,"delivered",4,614,1,"oldreal",1993,-1.25869874640977,"no",6.42162226780652,"oldword"
"146",146,102,10,"delivered",4,614,1,"oldreal",1993,-1.25869874640977,"no",6.42162226780652,"oldword"
"147",147,102,11,"recite",7,662,1,"youngreal",1993,-1.23528014206082,"no",6.49677499018586,"oldword"
"148",148,102,12,"dental",2,602,1,"iso",1993,-1.21186153771186,"no",6.40191719672719,"oldword"
"149",149,102,12,"willow",4,630,1,"oldreal",1993,-1.21186153771186,"no",6.44730586254121,"oldword"
"150",150,102,13,"silent",2,560,0,"iso",1993,-1.18844293336291,"no",6.3297209055227,"oldword"
"151",151,102,13,"silent",2,560,0,"iso",1993,-1.18844293336291,"no",6.3297209055227,"oldword"
"152",152,102,14,"mittens",2,906,1,"iso",1993,-1.16502432901395,"no",6.81014245011514,"oldword"
"153",153,102,15,"intellectual",7,824,1,"youngreal",1993,-1.141605724665,"no",6.71538338633468,"youngword"
"154",154,102,15,"dental",4,712,1,"oldreal",1993,-1.141605724665,"no",6.5694814204143,"oldword"
"155",155,102,16,"video",2,613,1,"iso",1993,-1.11818712031604,"no",6.41999492814714,"youngword"
"156",156,102,16,"video",2,613,1,"iso",1993,-1.11818712031604,"no",6.41999492814714,"youngword"
"157",157,102,17,"fridge",2,507,1,"iso",1993,-1.09476851596709,"no",6.23048144757848,"youngword"
"158",158,102,19,"environment",7,655,1,"youngreal",1993,-1.04793130726918,"no",6.48616078894409,"youngword"
"159",159,102,19,"chemistry",2,597,1,"iso",1993,-1.04793130726918,"no",6.39359075395063,"youngword"
"160",160,102,20,"seventh",2,596,1,"iso",1993,-1.02451270292023,"no",6.3919171133926,"youngword"
"161",161,102,20,"seventh",2,596,1,"iso",1993,-1.02451270292023,"no",6.3919171133926,"youngword"
"162",162,102,20,"idle",4,685,1,"oldreal",1993,-1.02451270292023,"no",6.53087762772588,"oldword"
"163",163,102,20,"idle",4,685,1,"oldreal",1993,-1.02451270292023,"no",6.53087762772588,"oldword"
"164",164,102,21,"respected",2,682,1,"iso",1993,-1.00109409857127,"no",6.52649485957079,"oldword"
"165",165,102,21,"respected",2,682,1,"iso",1993,-1.00109409857127,"no",6.52649485957079,"oldword"
"166",166,102,22,"stress",7,802,1,"youngreal",1993,-0.977675494222316,"no",6.68835471394676,"youngword"
"167",167,102,22,"lifting",2,621,1,"iso",1993,-0.977675494222316,"no",6.43294009273918,"youngword"
"168",168,102,22,"stress",4,660,1,"oldreal",1993,-0.977675494222316,"no",6.49375383985169,"youngword"
"169",169,102,23,"depressing",2,580,1,"iso",1993,-0.954256889873361,"no",6.36475075685191,"youngword"
"170",170,102,23,"depressing",2,580,1,"iso",1993,-0.954256889873361,"no",6.36475075685191,"youngword"
"171",171,102,23,"depressing",2,580,1,"iso",1993,-0.954256889873361,"no",6.36475075685191,"youngword"
"172",172,102,24,"frighten",2,619,1,"iso",1993,-0.930838285524407,"no",6.42971947803914,"oldword"
"173",173,102,25,"libraries",2,593,1,"iso",1993,-0.907419681175452,"no",6.38687931936265,"oldword"
"174",174,102,26,"depressing",7,812,1,"youngreal",1993,-0.884001076826497,"no",6.70073110954781,"youngword"
"175",175,102,26,"confectionery",4,611,1,"oldreal",1993,-0.884001076826497,"no",6.41673228251233,"oldword"
"176",176,102,27,"expensive",7,594,1,"youngreal",1993,-0.860582472477543,"no",6.38856140554563,"youngword"
"177",177,102,27,"expensive",7,594,1,"youngreal",1993,-0.860582472477543,"no",6.38856140554563,"youngword"
"178",178,102,29,"permission",2,747,1,"iso",1993,-0.813745263779634,"no",6.61740297797448,"oldword"
"179",179,102,30,"impressive",7,802,1,"youngreal",1993,-0.790326659430679,"no",6.68835471394676,"youngword"
"180",180,102,31,"environment",4,545,1,"oldreal",1993,-0.766908055081724,"no",6.30261897574491,"youngword"
"181",181,102,31,"nicest",7,936,1,"youngreal",1993,-0.766908055081724,"no",6.84268328223842,"youngword"
"182",182,102,31,"bitten",2,669,1,"iso",1993,-0.766908055081724,"no",6.50727771238501,"youngword"
"183",183,102,33,"libraries",7,645,1,"youngreal",1993,-0.720070846383815,"no",6.4707995037826,"oldword"
"184",184,102,34,"fried",4,758,1,"oldreal",1993,-0.69665224203486,"no",6.63200177739563,"oldword"
"185",185,102,36,"nicest",4,850,1,"oldreal",1993,-0.649815033336951,"no",6.74641212857337,"youngword"
"186",186,102,36,"pencils",7,488,1,"youngreal",1993,-0.649815033336951,"no",6.19236248947487,"oldword"
"187",187,102,37,"nicest",2,689,1,"iso",1993,-0.626396428987997,"no",6.5366915975913,"youngword"
"188",188,102,37,"nicest",2,689,1,"iso",1993,-0.626396428987997,"no",6.5366915975913,"youngword"
"189",189,102,38,"fridge",7,598,1,"youngreal",1993,-0.602977824639042,"no",6.39526159811545,"youngword"
"190",190,102,40,"intellectual",2,626,1,"iso",1993,-0.556140615941133,"no",6.44094654063292,"youngword"
"191",191,102,41,"depressing",4,720,1,"oldreal",1993,-0.532722011592178,"no",6.58063913728495,"youngword"
"192",192,102,43,"lifestyle",2,657,1,"iso",1993,-0.485884802894269,"no",6.48920493132532,"youngword"
"193",193,102,44,"idle",2,812,1,"iso",1993,-0.462466198545314,"no",6.70073110954781,"oldword"
"194",194,102,46,"survival",2,558,1,"iso",1993,-0.415628989847405,"no",6.3261494731551,"youngword"
"195",195,102,47,"fried",2,575,1,"iso",1993,-0.39221038549845,"no",6.35610766069589,"oldword"
"196",196,102,48,"electricity",7,633,1,"youngreal",1993,-0.368791781149496,"no",6.45204895443723,"oldword"
"197",197,102,49,"silent",7,667,1,"youngreal",1993,-0.345373176800541,"no",6.50428817353665,"oldword"
"198",198,102,50,"electricity",2,698,1,"iso",1993,-0.321954572451587,"no",6.54965074223381,"oldword"
"199",199,102,51,"delivered",7,934,1,"youngreal",1993,-0.298535968102632,"no",6.84054652928869,"oldword"
"200",200,102,52,"idle",7,671,1,"youngreal",1993,-0.275117363753677,"no",6.51025834052315,"oldword"
"201",201,102,53,"impressive",2,632,1,"iso",1993,-0.251698759404723,"no",6.45047042214418,"youngword"
"202",202,102,54,"delivered",2,581,1,"iso",1993,-0.228280155055768,"no",6.36647044773144,"oldword"
"203",203,102,55,"respected",4,614,1,"oldreal",1993,-0.204861550706813,"no",6.42162226780652,"oldword"
"204",204,102,55,"mittens",7,630,1,"youngreal",1993,-0.204861550706813,"no",6.44730586254121,"oldword"
"205",205,102,56,"hymns",2,637,1,"iso",1993,-0.181442946357859,"no",6.45833828334479,"oldword"
"206",206,102,56,"hymns",2,637,1,"iso",1993,-0.181442946357859,"no",6.45833828334479,"oldword"
"207",207,102,58,"stress",2,596,1,"iso",1993,-0.13460573765995,"no",6.3919171133926,"youngword"
"208",208,102,59,"pencils",4,681,1,"oldreal",1993,-0.111187133310995,"no",6.52502965784346,"oldword"
"209",209,102,63,"physics",7,553,1,"youngreal",1993,-0.0175127159151765,"no",6.31716468674728,"youngword"
"210",210,102,63,"physics",2,585,1,"iso",1993,-0.0175127159151765,"no",6.37331978957701,"youngword"
"211",211,102,64,"respected",7,610,1,"youngreal",1993,0.00590588843377808,"no",6.4150969591716,"oldword"
"212",212,102,64,"respected",7,610,1,"youngreal",1993,0.00590588843377808,"no",6.4150969591716,"oldword"
"213",213,102,64,"reckon",2,776,1,"iso",1993,0.00590588843377808,"no",6.65544035036765,"youngword"
"214",214,102,64,"reckon",2,776,1,"iso",1993,0.00590588843377808,"no",6.65544035036765,"youngword"
"215",215,102,65,"spirits",7,584,1,"youngreal",1993,0.0293244927827327,"no",6.37161184723186,"youngword"
"216",216,102,65,"spirits",7,584,1,"youngreal",1993,0.0293244927827327,"no",6.37161184723186,"youngword"
"217",217,102,66,"pencils",2,548,1,"iso",1993,0.0527430971316873,"no",6.30809844150953,"oldword"
"218",218,102,67,"dye",2,629,1,"iso",1993,0.0761617014806419,"no",6.44571981938558,"youngword"
"219",219,102,68,"hymns",7,1013,1,"youngreal",1993,0.0995803058295965,"no",6.92165818415113,"oldword"
"220",220,102,69,"guide",2,595,1,"iso",1993,0.122998910178551,"no",6.39024066706535,"youngword"
"221",221,102,70,"fireworks",4,805,1,"oldreal",1993,0.146417514527506,"no",6.69208374250663,"oldword"
"222",222,102,70,"video",7,626,0,"youngreal",1993,0.146417514527506,"no",6.44094654063292,"youngword"
"223",223,102,71,"physics",4,627,1,"oldreal",1993,0.16983611887646,"no",6.4425401664682,"youngword"
"224",224,102,71,"physics",4,627,1,"oldreal",1993,0.16983611887646,"no",6.4425401664682,"youngword"
"225",225,102,72,"expensive",2,568,1,"iso",1993,0.193254723225415,"no",6.34388043412633,"youngword"
"226",226,102,73,"whistle",2,544,1,"iso",1993,0.21667332757437,"no",6.30078579466324,"oldword"
"227",227,102,74,"spirits",2,497,1,"iso",1993,0.240091931923324,"no",6.21060007702465,"youngword"
"228",228,102,75,"fireworks",2,540,1,"iso",1993,0.263510536272279,"no",6.29341927884648,"oldword"
"229",229,102,76,"intellectual",4,565,0,"oldreal",1993,0.286929140621233,"no",6.33859407820318,"youngword"
"230",230,102,76,"beg",2,645,1,"iso",1993,0.286929140621233,"no",6.4707995037826,"oldword"
"231",231,102,78,"libraries",4,532,1,"oldreal",1993,0.333766349319143,"no",6.27852142416584,"oldword"
"232",232,102,79,"miners",2,719,1,"iso",1993,0.357184953668097,"no",6.5792512120101,"oldword"
"233",233,102,83,"hymns",4,610,1,"oldreal",1993,0.450859371063916,"no",6.4150969591716,"oldword"
"234",234,102,84,"permission",4,681,1,"oldreal",1993,0.47427797541287,"no",6.52502965784346,"oldword"
"235",235,102,85,"dye",7,654,1,"youngreal",1993,0.497696579761825,"no",6.48463523563525,"youngword"
"236",236,102,85,"spirits",4,556,1,"oldreal",1993,0.497696579761825,"no",6.32256523992728,"youngword"
"237",237,102,94,"lifestyle",7,717,1,"youngreal",1993,0.708464018902417,"no",6.57646956904822,"youngword"
"238",238,102,94,"lifestyle",4,570,1,"oldreal",1993,0.708464018902417,"no",6.34738920965601,"youngword"
"239",239,102,96,"survival",4,752,1,"oldreal",1993,0.755301227600326,"no",6.62406522779989,"youngword"
"240",240,102,98,"recite",4,853,1,"oldreal",1993,0.802138436298235,"no",6.74993119378857,"oldword"
"241",241,102,99,"fireworks",7,569,1,"youngreal",1993,0.82555704064719,"no",6.3456363608286,"oldword"
"242",242,102,100,"confectionery",7,553,1,"youngreal",1993,0.848975644996144,"no",6.31716468674728,"oldword"
"243",243,102,103,"video",4,848,1,"oldreal",1993,0.919231458043008,"no",6.74405918631135,"youngword"
"244",244,102,106,"dental",7,599,1,"youngreal",1993,0.989487271089872,"no",6.39692965521615,"oldword"
"245",245,102,109,"impressive",4,638,1,"oldreal",1993,1.05974308413674,"no",6.45990445437753,"youngword"
"246",246,102,110,"electricity",4,547,1,"oldreal",1993,1.08316168848569,"no",6.30627528694802,"oldword"
"247",247,102,112,"chemistry",7,660,1,"youngreal",1993,1.1299988971836,"no",6.49375383985169,"youngword"
"248",248,102,114,"lifting",7,613,1,"youngreal",1993,1.17683610588151,"no",6.41999492814714,"youngword"
"249",249,102,117,"dye",4,963,1,"oldreal",1993,1.24709191892837,"no",6.87109129461055,"youngword"
"250",250,102,118,"beg",4,783,0,"oldreal",1993,1.27051052327733,"no",6.66440902035041,"oldword"
"251",251,102,121,"whistle",7,619,1,"youngreal",1993,1.34076633632419,"no",6.42971947803914,"oldword"
"252",252,102,122,"reckon",7,562,1,"youngreal",1993,1.36418494067315,"no",6.33327962813969,"youngword"
"253",253,102,123,"bitten",7,458,1,"youngreal",1993,1.3876035450221,"no",6.12905021006055,"youngword"
"254",254,102,127,"seventh",7,641,1,"youngreal",1993,1.48127796241792,"no",6.46458830368996,"youngword"
"255",255,102,127,"silent",4,986,1,"oldreal",1993,1.48127796241792,"no",6.89467003943348,"oldword"
"256",256,102,129,"beg",7,656,1,"youngreal",1993,1.52811517111583,"no",6.48768401848461,"oldword"
"257",257,102,130,"survival",7,485,1,"youngreal",1993,1.55153377546478,"no",6.18620862390049,"youngword"
"258",258,102,134,"mittens",4,563,0,"oldreal",1993,1.6452081928606,"no",6.33505425149806,"oldword"
"259",259,102,135,"whistle",4,584,1,"oldreal",1993,1.66862679720956,"no",6.37161184723186,"oldword"
"260",260,102,137,"frighten",4,587,1,"oldreal",1993,1.71546400590746,"no",6.37672694789863,"oldword"
"261",261,102,142,"lifting",4,943,1,"oldreal",1993,1.83255702765224,"no",6.8501261661455,"youngword"
"262",262,102,143,"reckon",4,520,1,"oldreal",1993,1.85597563200119,"no",6.25575004175337,"youngword"
"263",263,102,146,"guide",4,723,1,"oldreal",1993,1.92623144504806,"no",6.58479139238572,"youngword"
"264",264,102,150,"fried",7,754,1,"youngreal",1993,2.01990586244388,"no",6.62671774924902,"oldword"
"265",265,102,151,"chemistry",4,575,1,"oldreal",1993,2.04332446679283,"no",6.35610766069589,"youngword"
"266",266,102,153,"permission",7,620,1,"youngreal",1993,2.09016167549074,"no",6.43133108193348,"oldword"
"267",267,102,154,"willow",7,402,1,"youngreal",1993,2.11358027983969,"no",5.99893656194668,"oldword"
"268",268,103,2,"depressing",2,1050,1,"iso",1956,-1.44604758120141,"yes",6.95749737087695,"youngword"
"269",269,103,3,"dental",2,926,1,"iso",1956,-1.42262897685245,"yes",6.83195356556585,"oldword"
"270",270,103,6,"willow",2,758,1,"iso",1956,-1.35237316380559,"yes",6.63200177739563,"oldword"
"271",271,103,6,"hymns",4,1464,1,"oldreal",1956,-1.35237316380559,"yes",7.28961052145117,"oldword"
"272",272,103,7,"pencils",4,970,1,"oldreal",1956,-1.32895455945663,"yes",6.87832646829133,"oldword"
"273",273,103,7,"pencils",4,970,1,"oldreal",1956,-1.32895455945663,"yes",6.87832646829133,"oldword"
"274",274,103,8,"intellectual",2,1008,1,"iso",1956,-1.30553595510768,"yes",6.91671502035361,"youngword"
"275",275,103,9,"fireworks",2,903,1,"iso",1956,-1.28211735075873,"yes",6.80682936039218,"oldword"
"276",276,103,10,"silent",4,1443,1,"oldreal",1956,-1.25869874640977,"yes",7.27517231945277,"oldword"
"277",277,103,12,"reckon",2,843,1,"iso",1956,-1.21186153771186,"yes",6.73815249459596,"youngword"
"278",278,103,14,"nicest",4,990,0,"oldreal",1956,-1.16502432901395,"yes",6.89871453432999,"youngword"
"279",279,103,15,"environment",2,732,1,"iso",1956,-1.141605724665,"yes",6.59714570188665,"youngword"
"280",280,103,16,"electricity",2,742,1,"iso",1956,-1.11818712031604,"yes",6.61069604471776,"oldword"
"281",281,103,18,"whistle",2,801,1,"iso",1956,-1.07134991161813,"yes",6.68710860786651,"oldword"
"282",282,103,21,"idle",2,699,1,"iso",1956,-1.00109409857127,"yes",6.5510803350434,"oldword"
"283",283,103,22,"impressive",2,1406,0,"iso",1956,-0.977675494222316,"yes",7.24921505711439,"youngword"
"284",284,103,23,"physics",7,762,1,"youngreal",1956,-0.954256889873361,"yes",6.63725803128446,"youngword"
"285",285,103,25,"delivered",2,657,1,"iso",1956,-0.907419681175452,"yes",6.48920493132532,"oldword"
"286",286,103,26,"expensive",2,509,1,"iso",1956,-0.884001076826497,"yes",6.23441072571837,"youngword"
"287",287,103,26,"whistle",7,610,0,"youngreal",1956,-0.884001076826497,"yes",6.4150969591716,"oldword"
"288",288,103,30,"fridge",2,898,1,"iso",1956,-0.790326659430679,"yes",6.80128303447162,"youngword"
"289",289,103,31,"respected",2,795,1,"iso",1956,-0.766908055081724,"yes",6.67959918584438,"oldword"
"290",290,103,33,"libraries",2,814,1,"iso",1956,-0.720070846383815,"yes",6.70318811324086,"oldword"
"291",291,103,33,"beg",7,1430,1,"youngreal",1956,-0.720070846383815,"yes",7.26612877955645,"oldword"
"292",292,103,34,"permission",2,604,1,"iso",1956,-0.69665224203486,"yes",6.40522845803084,"oldword"
"293",293,103,34,"permission",2,604,1,"iso",1956,-0.69665224203486,"yes",6.40522845803084,"oldword"
"294",294,103,36,"lifting",2,635,0,"iso",1956,-0.649815033336951,"yes",6.45519856334012,"youngword"
"295",295,103,36,"video",4,1017,1,"oldreal",1956,-0.649815033336951,"yes",6.92559519711047,"youngword"
"296",296,103,37,"nicest",2,805,1,"iso",1956,-0.626396428987997,"yes",6.69208374250663,"youngword"
"297",297,103,37,"nicest",2,805,1,"iso",1956,-0.626396428987997,"yes",6.69208374250663,"youngword"
"298",298,103,37,"seventh",7,1436,1,"youngreal",1956,-0.626396428987997,"yes",7.27031288607902,"youngword"
"299",299,103,37,"seventh",7,1436,1,"youngreal",1956,-0.626396428987997,"yes",7.27031288607902,"youngword"
"300",300,103,37,"physics",4,864,1,"oldreal",1956,-0.626396428987997,"yes",6.76272950693188,"youngword"
"301",301,103,37,"physics",4,864,1,"oldreal",1956,-0.626396428987997,"yes",6.76272950693188,"youngword"
"302",302,103,38,"guide",4,515,1,"oldreal",1956,-0.602977824639042,"yes",6.24610676548156,"youngword"
"303",303,103,38,"guide",4,515,1,"oldreal",1956,-0.602977824639042,"yes",6.24610676548156,"youngword"
"304",304,103,38,"guide",4,515,1,"oldreal",1956,-0.602977824639042,"yes",6.24610676548156,"youngword"
"305",305,103,38,"frighten",2,811,1,"iso",1956,-0.602977824639042,"yes",6.69950034016168,"oldword"
"306",306,103,38,"frighten",2,811,1,"iso",1956,-0.602977824639042,"yes",6.69950034016168,"oldword"
"307",307,103,38,"frighten",2,811,1,"iso",1956,-0.602977824639042,"yes",6.69950034016168,"oldword"
"308",308,103,39,"lifestyle",2,699,1,"iso",1956,-0.579559220290087,"yes",6.5510803350434,"youngword"
"309",309,103,39,"lifestyle",2,699,1,"iso",1956,-0.579559220290087,"yes",6.5510803350434,"youngword"
"310",310,103,40,"miners",2,781,1,"iso",1956,-0.556140615941133,"yes",6.66185474054531,"oldword"
"311",311,103,40,"impressive",7,856,1,"youngreal",1956,-0.556140615941133,"yes",6.75343791859778,"youngword"
"312",312,103,41,"bitten",2,493,1,"iso",1956,-0.532722011592178,"yes",6.20253551718792,"youngword"
"313",313,103,41,"bitten",2,493,1,"iso",1956,-0.532722011592178,"yes",6.20253551718792,"youngword"
"314",314,103,45,"mittens",2,621,0,"iso",1956,-0.43904759419636,"yes",6.43294009273918,"oldword"
"315",315,103,45,"miners",7,869,1,"youngreal",1956,-0.43904759419636,"yes",6.76849321164863,"oldword"
"316",316,103,46,"hymns",2,775,1,"iso",1956,-0.415628989847405,"yes",6.65415252018322,"oldword"
"317",317,103,46,"hymns",2,775,1,"iso",1956,-0.415628989847405,"yes",6.65415252018322,"oldword"
"318",318,103,46,"permission",7,857,1,"youngreal",1956,-0.415628989847405,"yes",6.75460409948796,"oldword"
"319",319,103,46,"permission",7,857,1,"youngreal",1956,-0.415628989847405,"yes",6.75460409948796,"oldword"
"320",320,103,48,"recite",2,1379,0,"iso",1956,-0.368791781149496,"yes",7.22983877815125,"oldword"
"321",321,103,49,"beg",4,818,1,"oldreal",1956,-0.345373176800541,"yes",6.70808408385307,"oldword"
"322",322,103,50,"delivered",7,878,1,"youngreal",1956,-0.321954572451587,"yes",6.77878489768518,"oldword"
"323",323,103,51,"depressing",4,1623,1,"oldreal",1956,-0.298535968102632,"yes",7.39264752072162,"youngword"
"324",324,103,54,"beg",2,746,1,"iso",1956,-0.228280155055768,"yes",6.61606518513282,"oldword"
"325",325,103,55,"pencils",2,835,1,"iso",1956,-0.204861550706813,"yes",6.7286286130847,"oldword"
"326",326,103,55,"pencils",7,1103,0,"youngreal",1956,-0.204861550706813,"yes",7.00669522683704,"oldword"
"327",327,103,57,"fried",2,772,1,"iso",1956,-0.158024342008904,"yes",6.65027904858742,"oldword"
"328",328,103,59,"idle",4,901,1,"oldreal",1956,-0.111187133310995,"yes",6.80461452006262,"oldword"
"329",329,103,59,"respected",7,1500,1,"youngreal",1956,-0.111187133310995,"yes",7.31388683163346,"oldword"
"330",330,103,61,"fireworks",4,768,1,"oldreal",1956,-0.0643499246130858,"yes",6.64509096950564,"oldword"
"331",331,103,62,"frighten",4,1161,1,"oldreal",1956,-0.0409313202641312,"yes",7.05789793741186,"oldword"
"332",332,103,62,"confectionery",2,589,1,"iso",1956,-0.0409313202641312,"yes",6.38012253689976,"oldword"
"333",333,103,63,"guide",2,707,1,"iso",1956,-0.0175127159151765,"yes",6.56244409369372,"youngword"
"334",334,103,63,"guide",2,707,1,"iso",1956,-0.0175127159151765,"yes",6.56244409369372,"youngword"
"335",335,103,63,"dye",4,657,1,"oldreal",1956,-0.0175127159151765,"yes",6.48920493132532,"youngword"
"336",336,103,63,"dye",4,657,1,"oldreal",1956,-0.0175127159151765,"yes",6.48920493132532,"youngword"
"337",337,103,66,"idle",7,942,1,"youngreal",1956,0.0527430971316873,"yes",6.84906628263346,"oldword"
"338",338,103,68,"guide",7,798,1,"youngreal",1956,0.0995803058295965,"yes",6.68336094576627,"youngword"
"339",339,103,69,"frighten",7,886,1,"youngreal",1956,0.122998910178551,"yes",6.78784498230958,"oldword"
"340",340,103,69,"seventh",2,784,1,"iso",1956,0.122998910178551,"yes",6.66568371778241,"youngword"
"341",341,103,70,"dye",7,680,1,"youngreal",1956,0.146417514527506,"yes",6.52356230614951,"youngword"
"342",342,103,70,"dye",7,680,1,"youngreal",1956,0.146417514527506,"yes",6.52356230614951,"youngword"
"343",343,103,73,"silent",7,1311,1,"youngreal",1956,0.21667332757437,"yes",7.17930796950403,"oldword"
"344",344,103,74,"fridge",7,680,1,"youngreal",1956,0.240091931923324,"yes",6.52356230614951,"youngword"
"345",345,103,75,"video",2,712,1,"iso",1956,0.263510536272279,"yes",6.5694814204143,"youngword"
"346",346,103,76,"dye",2,809,1,"iso",1956,0.286929140621233,"yes",6.69703424766648,"youngword"
"347",347,103,77,"chemistry",2,905,1,"iso",1956,0.310347744970188,"yes",6.80903930604298,"youngword"
"348",348,103,78,"spirits",2,676,1,"iso",1956,0.333766349319143,"yes",6.51767127291227,"youngword"
"349",349,103,79,"reckon",4,924,0,"oldreal",1956,0.357184953668097,"yes",6.82979373751242,"youngword"
"350",350,103,80,"stress",2,799,1,"iso",1956,0.380603558017052,"yes",6.68461172766793,"youngword"
"351",351,103,81,"confectionery",4,863,0,"oldreal",1956,0.404022162366007,"yes",6.76157276880406,"oldword"
"352",352,103,82,"environment",4,663,1,"oldreal",1956,0.427440766714961,"yes",6.49828214947643,"youngword"
"353",353,103,83,"survival",4,483,1,"oldreal",1956,0.450859371063916,"yes",6.18208490671663,"youngword"
"354",354,103,85,"libraries",4,952,1,"oldreal",1956,0.497696579761825,"yes",6.8596149036542,"oldword"
"355",355,103,85,"intellectual",7,901,1,"youngreal",1956,0.497696579761825,"yes",6.80461452006262,"youngword"
"356",356,103,86,"expensive",7,617,1,"youngreal",1956,0.52111518411078,"yes",6.42648845745769,"youngword"
"357",357,103,86,"expensive",7,617,1,"youngreal",1956,0.52111518411078,"yes",6.42648845745769,"youngword"
"358",358,103,86,"permission",4,736,1,"oldreal",1956,0.52111518411078,"yes",6.60258789218934,"oldword"
"359",359,103,86,"permission",4,736,1,"oldreal",1956,0.52111518411078,"yes",6.60258789218934,"oldword"
"360",360,103,92,"electricity",7,1043,1,"youngreal",1956,0.661626810204507,"yes",6.95081476844258,"oldword"
"361",361,103,95,"environment",7,1438,1,"youngreal",1956,0.731882623251371,"yes",7.27170370688737,"youngword"
"362",362,103,96,"survival",7,779,1,"youngreal",1956,0.755301227600326,"yes",6.65929391968364,"youngword"
"363",363,103,99,"confectionery",7,783,1,"youngreal",1956,0.82555704064719,"yes",6.66440902035041,"oldword"
"364",364,103,101,"stress",4,998,1,"oldreal",1956,0.872394249345099,"yes",6.90675477864855,"youngword"
"365",365,103,104,"reckon",7,1569,1,"youngreal",1956,0.942650062391963,"yes",7.35883089834235,"youngword"
"366",366,103,107,"bitten",7,1154,1,"youngreal",1956,1.01290587543883,"yes",7.05185562295589,"youngword"
"367",367,103,108,"miners",4,1243,0,"oldreal",1956,1.03632447978778,"yes",7.12608727329912,"oldword"
"368",368,103,108,"fried",7,1114,1,"youngreal",1956,1.03632447978778,"yes",7.01660968389422,"oldword"
"369",369,103,111,"lifting",4,1140,1,"oldreal",1956,1.10658029283465,"yes",7.03966034986208,"youngword"
"370",370,103,112,"recite",4,868,1,"oldreal",1956,1.1299988971836,"yes",6.76734312526539,"oldword"
"371",371,103,120,"mittens",7,786,1,"youngreal",1956,1.31734773197524,"yes",6.6682282484174,"oldword"
"372",372,103,126,"lifting",7,956,1,"youngreal",1956,1.45785935806896,"yes",6.86380339145295,"youngword"
"373",373,103,127,"fireworks",7,837,1,"youngreal",1956,1.48127796241792,"yes",6.73101810048208,"oldword"
"374",374,103,128,"nicest",7,545,1,"youngreal",1956,1.50469656676687,"yes",6.30261897574491,"youngword"
"375",375,103,129,"video",7,515,1,"youngreal",1956,1.52811517111583,"yes",6.24610676548156,"youngword"
"376",376,103,130,"willow",7,461,1,"youngreal",1956,1.55153377546478,"yes",6.13556489108174,"oldword"
"377",377,103,131,"chemistry",7,513,1,"youngreal",1956,1.57495237981374,"yes",6.24222326545517,"youngword"
"378",378,103,133,"hymns",7,409,1,"youngreal",1956,1.62178958851165,"yes",6.01615715969835,"oldword"
"379",379,103,134,"spirits",4,925,0,"oldreal",1956,1.6452081928606,"yes",6.83087423464618,"youngword"
"380",380,103,136,"seventh",4,1582,1,"oldreal",1956,1.69204540155851,"yes",7.36707705988101,"youngword"
"381",381,103,136,"spirits",7,998,1,"youngreal",1956,1.69204540155851,"yes",6.90675477864855,"youngword"
"382",382,103,138,"bitten",4,1004,0,"oldreal",1956,1.73888261025642,"yes",6.91274282049318,"youngword"
"383",383,103,139,"electricity",4,1349,1,"oldreal",1956,1.76230121460537,"yes",7.20785987143248,"oldword"
"384",384,103,145,"lifestyle",7,1004,1,"youngreal",1956,1.9028128406991,"yes",6.91274282049318,"youngword"
"385",385,103,149,"recite",7,1199,1,"youngreal",1956,1.99648725809492,"yes",7.09007683577609,"oldword"
"386",386,103,150,"stress",7,668,1,"youngreal",1956,2.01990586244388,"yes",6.50578406012823,"youngword"
"387",387,103,150,"delivered",4,1244,0,"oldreal",1956,2.01990586244388,"yes",7.12689080889881,"oldword"
"388",388,103,151,"respected",4,963,1,"oldreal",1956,2.04332446679283,"yes",6.87109129461055,"oldword"
"389",389,103,151,"respected",4,963,1,"oldreal",1956,2.04332446679283,"yes",6.87109129461055,"oldword"
"390",390,103,154,"fridge",4,1177,1,"oldreal",1956,2.11358027983969,"yes",7.07157336421153,"youngword"
"391",391,103,155,"libraries",7,1005,1,"youngreal",1956,2.13699888418865,"yes",6.91373735065968,"oldword"
"392",392,103,155,"impressive",4,687,1,"oldreal",1956,2.13699888418865,"yes",6.53378883793334,"youngword"
"393",393,103,156,"depressing",7,699,1,"youngreal",1956,2.1604174885376,"yes",6.5510803350434,"youngword"
"394",394,103,156,"depressing",7,699,1,"youngreal",1956,2.1604174885376,"yes",6.5510803350434,"youngword"
"395",395,104,1,"expensive",2,502,1,"iso",1992,-1.46946618555036,"no",6.22059017009974,"youngword"
"396",396,104,1,"fridge",4,645,1,"oldreal",1992,-1.46946618555036,"no",6.4707995037826,"youngword"
"397",397,104,2,"bitten",2,537,1,"iso",1992,-1.44604758120141,"no",6.28785856016178,"youngword"
"398",398,104,2,"bitten",2,537,1,"iso",1992,-1.44604758120141,"no",6.28785856016178,"youngword"
"399",399,104,3,"whistle",2,545,1,"iso",1992,-1.42262897685245,"no",6.30261897574491,"oldword"
"400",400,104,5,"confectionery",7,547,1,"youngreal",1992,-1.37579176815454,"no",6.30627528694802,"oldword"
"401",401,104,7,"stress",7,746,1,"youngreal",1992,-1.32895455945663,"no",6.61606518513282,"youngword"
"402",402,104,9,"seventh",7,484,1,"youngreal",1992,-1.28211735075873,"no",6.18414889093748,"youngword"
"403",403,104,9,"permission",2,575,1,"iso",1992,-1.28211735075873,"no",6.35610766069589,"oldword"
"404",404,104,11,"dental",2,597,1,"iso",1992,-1.23528014206082,"no",6.39359075395063,"oldword"
"405",405,104,11,"bitten",7,524,1,"youngreal",1992,-1.23528014206082,"no",6.26339826259162,"youngword"
"406",406,104,12,"pencils",4,714,1,"oldreal",1992,-1.21186153771186,"no",6.57228254269401,"oldword"
"407",407,104,12,"pencils",4,714,1,"oldreal",1992,-1.21186153771186,"no",6.57228254269401,"oldword"
"408",408,104,13,"seventh",2,512,1,"iso",1992,-1.18844293336291,"no",6.24027584517077,"youngword"
"409",409,104,14,"libraries",2,574,1,"iso",1992,-1.16502432901395,"no",6.35437004079735,"oldword"
"410",410,104,16,"physics",2,542,1,"iso",1992,-1.11818712031604,"no",6.29710931993394,"youngword"
"411",411,104,17,"silent",2,480,1,"iso",1992,-1.09476851596709,"no",6.17586727010576,"oldword"
"412",412,104,18,"survival",2,437,1,"iso",1992,-1.07134991161813,"no",6.08221891037645,"youngword"
"413",413,104,19,"beg",4,606,1,"oldreal",1992,-1.04793130726918,"no",6.4085287910595,"oldword"
"414",414,104,19,"chemistry",7,849,1,"youngreal",1992,-1.04793130726918,"no",6.74523634948436,"youngword"
"415",415,104,21,"miners",2,732,1,"iso",1992,-1.00109409857127,"no",6.59714570188665,"oldword"
"416",416,104,21,"lifting",4,988,1,"oldreal",1992,-1.00109409857127,"no",6.89669433162271,"youngword"
"417",417,104,22,"guide",2,390,0,"iso",1992,-0.977675494222316,"no",5.96870755998537,"youngword"
"418",418,104,22,"guide",2,390,0,"iso",1992,-0.977675494222316,"no",5.96870755998537,"youngword"
"419",419,104,23,"fireworks",4,824,1,"oldreal",1992,-0.954256889873361,"no",6.71538338633468,"oldword"
"420",420,104,23,"confectionery",2,606,1,"iso",1992,-0.954256889873361,"no",6.4085287910595,"oldword"
"421",421,104,24,"silent",7,543,1,"youngreal",1992,-0.930838285524407,"no",6.29894924685594,"oldword"
"422",422,104,24,"silent",7,543,1,"youngreal",1992,-0.930838285524407,"no",6.29894924685594,"oldword"
"423",423,104,26,"bitten",4,649,1,"oldreal",1992,-0.884001076826497,"no",6.47697236288968,"youngword"
"424",424,104,27,"expensive",7,600,0,"youngreal",1992,-0.860582472477543,"no",6.39859493453521,"youngword"
"425",425,104,27,"delivered",2,483,1,"iso",1992,-0.860582472477543,"no",6.18208490671663,"oldword"
"426",426,104,27,"dental",4,551,1,"oldreal",1992,-0.860582472477543,"no",6.31354804627709,"oldword"
"427",427,104,28,"dye",7,505,1,"youngreal",1992,-0.837163868128588,"no",6.22653666928747,"youngword"
"428",428,104,28,"dye",7,505,1,"youngreal",1992,-0.837163868128588,"no",6.22653666928747,"youngword"
"429",429,104,28,"dye",7,505,1,"youngreal",1992,-0.837163868128588,"no",6.22653666928747,"youngword"
"430",430,104,28,"chemistry",2,550,1,"iso",1992,-0.837163868128588,"no",6.31173480915291,"youngword"
"431",431,104,28,"chemistry",2,550,1,"iso",1992,-0.837163868128588,"no",6.31173480915291,"youngword"
"432",432,104,28,"chemistry",2,550,1,"iso",1992,-0.837163868128588,"no",6.31173480915291,"youngword"
"433",433,104,29,"fried",2,512,1,"iso",1992,-0.813745263779634,"no",6.24027584517077,"oldword"
"434",434,104,29,"fried",2,512,1,"iso",1992,-0.813745263779634,"no",6.24027584517077,"oldword"
"435",435,104,30,"environment",4,733,1,"oldreal",1992,-0.790326659430679,"no",6.59850902861452,"youngword"
"436",436,104,30,"pencils",2,529,1,"iso",1992,-0.790326659430679,"no",6.27287700654617,"oldword"
"437",437,104,31,"guide",7,674,0,"youngreal",1992,-0.766908055081724,"no",6.51471269087253,"youngword"
"438",438,104,31,"guide",7,674,0,"youngreal",1992,-0.766908055081724,"no",6.51471269087253,"youngword"
"439",439,104,33,"frighten",2,510,1,"iso",1992,-0.720070846383815,"no",6.2363695902037,"oldword"
"440",440,104,33,"intellectual",4,801,1,"oldreal",1992,-0.720070846383815,"no",6.68710860786651,"youngword"
"441",441,104,34,"environment",2,506,1,"iso",1992,-0.69665224203486,"no",6.22851100359118,"youngword"
"442",442,104,34,"environment",2,506,1,"iso",1992,-0.69665224203486,"no",6.22851100359118,"youngword"
"443",443,104,35,"dye",2,508,1,"iso",1992,-0.673233637685906,"no",6.23244801655052,"youngword"
"444",444,104,35,"hymns",7,759,1,"youngreal",1992,-0.673233637685906,"no",6.63331843328038,"oldword"
"445",445,104,37,"depressing",7,748,1,"youngreal",1992,-0.626396428987997,"no",6.61873898351722,"youngword"
"446",446,104,37,"permission",4,870,1,"oldreal",1992,-0.626396428987997,"no",6.7696419768525,"oldword"
"447",447,104,38,"fireworks",2,478,1,"iso",1992,-0.602977824639042,"no",6.17170059741091,"oldword"
"448",448,104,38,"fireworks",2,478,1,"iso",1992,-0.602977824639042,"no",6.17170059741091,"oldword"
"449",449,104,39,"beg",2,513,0,"iso",1992,-0.579559220290087,"no",6.24222326545517,"oldword"
"450",450,104,39,"reckon",7,715,1,"youngreal",1992,-0.579559220290087,"no",6.57368016696065,"youngword"
"451",451,104,39,"seventh",4,708,1,"oldreal",1992,-0.579559220290087,"no",6.56385552653213,"youngword"
"452",452,104,40,"fridge",2,508,1,"iso",1992,-0.556140615941133,"no",6.23244801655052,"youngword"
"453",453,104,40,"fridge",2,508,1,"iso",1992,-0.556140615941133,"no",6.23244801655052,"youngword"
"454",454,104,40,"fridge",2,508,1,"iso",1992,-0.556140615941133,"no",6.23244801655052,"youngword"
"455",455,104,41,"video",7,607,1,"youngreal",1992,-0.532722011592178,"no",6.41017488196617,"youngword"
"456",456,104,46,"spirits",7,776,1,"youngreal",1992,-0.415628989847405,"no",6.65544035036765,"youngword"
"457",457,104,47,"nicest",2,531,1,"iso",1992,-0.39221038549845,"no",6.27664348934164,"youngword"
"458",458,104,47,"delivered",7,679,1,"youngreal",1992,-0.39221038549845,"no",6.52209279817015,"oldword"
"459",459,104,49,"respected",2,593,1,"iso",1992,-0.345373176800541,"no",6.38687931936265,"oldword"
"460",460,104,50,"idle",4,708,1,"oldreal",1992,-0.321954572451587,"no",6.56385552653213,"oldword"
"461",461,104,50,"lifting",2,640,1,"iso",1992,-0.321954572451587,"no",6.46302945692067,"youngword"
"462",462,104,51,"mittens",2,677,1,"iso",1992,-0.298535968102632,"no",6.5191472879404,"oldword"
"463",463,104,51,"mittens",2,677,1,"iso",1992,-0.298535968102632,"no",6.5191472879404,"oldword"
"464",464,104,52,"frighten",4,768,1,"oldreal",1992,-0.275117363753677,"no",6.64509096950564,"oldword"
"465",465,104,53,"impressive",2,516,1,"iso",1992,-0.251698759404723,"no",6.24804287450843,"youngword"
"466",466,104,54,"hymns",2,661,1,"iso",1992,-0.228280155055768,"no",6.49526555593701,"oldword"
"467",467,104,55,"miners",4,640,1,"oldreal",1992,-0.204861550706813,"no",6.46302945692067,"oldword"
"468",468,104,56,"fried",4,590,1,"oldreal",1992,-0.181442946357859,"no",6.3818160174061,"oldword"
"469",469,104,56,"beg",7,773,1,"youngreal",1992,-0.181442946357859,"no",6.65157187358973,"oldword"
"470",470,104,57,"electricity",4,533,1,"oldreal",1992,-0.158024342008904,"no",6.2803958389602,"oldword"
"471",471,104,57,"electricity",4,533,1,"oldreal",1992,-0.158024342008904,"no",6.2803958389602,"oldword"
"472",472,104,58,"idle",2,637,1,"iso",1992,-0.13460573765995,"no",6.45833828334479,"oldword"
"473",473,104,60,"stress",2,630,1,"iso",1992,-0.0877685289620404,"no",6.44730586254121,"youngword"
"474",474,104,62,"reckon",4,648,1,"oldreal",1992,-0.0409313202641312,"no",6.47543271670409,"youngword"
"475",475,104,62,"mittens",7,505,0,"youngreal",1992,-0.0409313202641312,"no",6.22653666928747,"oldword"
"476",476,104,62,"intellectual",2,508,1,"iso",1992,-0.0409313202641312,"no",6.23244801655052,"youngword"
"477",477,104,63,"stress",4,879,1,"oldreal",1992,-0.0175127159151765,"no",6.77992190747225,"youngword"
"478",478,104,63,"stress",4,879,1,"oldreal",1992,-0.0175127159151765,"no",6.77992190747225,"youngword"
"479",479,104,63,"stress",4,879,1,"oldreal",1992,-0.0175127159151765,"no",6.77992190747225,"youngword"
"480",480,104,63,"depressing",2,552,1,"iso",1992,-0.0175127159151765,"no",6.31535800152233,"youngword"
"481",481,104,63,"depressing",2,552,1,"iso",1992,-0.0175127159151765,"no",6.31535800152233,"youngword"
"482",482,104,63,"depressing",2,552,1,"iso",1992,-0.0175127159151765,"no",6.31535800152233,"youngword"
"483",483,104,65,"lifestyle",2,499,1,"iso",1992,0.0293244927827327,"no",6.21460809842219,"youngword"
"484",484,104,67,"survival",4,602,1,"oldreal",1992,0.0761617014806419,"no",6.40191719672719,"youngword"
"485",485,104,68,"impressive",7,695,0,"youngreal",1992,0.0995803058295965,"no",6.54534966033442,"youngword"
"486",486,104,69,"respected",7,596,1,"youngreal",1992,0.122998910178551,"no",6.3919171133926,"oldword"
"487",487,104,69,"recite",4,770,1,"oldreal",1992,0.122998910178551,"no",6.64768837356333,"oldword"
"488",488,104,69,"reckon",2,476,1,"iso",1992,0.122998910178551,"no",6.16751649088834,"youngword"
"489",489,104,70,"spirits",2,600,1,"iso",1992,0.146417514527506,"no",6.39859493453521,"youngword"
"490",490,104,70,"spirits",2,600,1,"iso",1992,0.146417514527506,"no",6.39859493453521,"youngword"
"491",491,104,70,"spirits",2,600,1,"iso",1992,0.146417514527506,"no",6.39859493453521,"youngword"
"492",492,104,72,"video",2,599,1,"iso",1992,0.193254723225415,"no",6.39692965521615,"youngword"
"493",493,104,72,"guide",4,642,0,"oldreal",1992,0.193254723225415,"no",6.46614472423762,"youngword"
"494",494,104,75,"recite",2,687,1,"iso",1992,0.263510536272279,"no",6.53378883793334,"oldword"
"495",495,104,78,"willow",2,579,1,"iso",1992,0.333766349319143,"no",6.36302810354046,"oldword"
"496",496,104,80,"electricity",2,584,1,"iso",1992,0.380603558017052,"no",6.37161184723186,"oldword"
"497",497,104,80,"pencils",7,823,1,"youngreal",1992,0.380603558017052,"no",6.71417052990947,"oldword"
"498",498,104,82,"intellectual",7,729,1,"youngreal",1992,0.427440766714961,"no",6.59304453414244,"youngword"
"499",499,104,82,"depressing",4,803,1,"oldreal",1992,0.427440766714961,"no",6.68959926917897,"youngword"
"500",500,104,83,"physics",7,947,1,"youngreal",1992,0.450859371063916,"no",6.85435450225502,"youngword"
"501",501,104,83,"physics",7,947,1,"youngreal",1992,0.450859371063916,"no",6.85435450225502,"youngword"
"502",502,104,87,"survival",7,905,1,"youngreal",1992,0.544533788459734,"no",6.80903930604298,"youngword"
"503",503,104,91,"mittens",4,618,1,"oldreal",1992,0.638208205855553,"no",6.4281052726846,"oldword"
"504",504,104,93,"recite",7,508,0,"youngreal",1992,0.685045414553462,"no",6.23244801655052,"oldword"
"505",505,104,97,"lifestyle",4,544,1,"oldreal",1992,0.77871983194928,"no",6.30078579466324,"youngword"
"506",506,104,101,"whistle",4,754,1,"oldreal",1992,0.872394249345099,"no",6.62671774924902,"oldword"
"507",507,104,102,"confectionery",4,422,0,"oldreal",1992,0.895812853694054,"no",6.04737217904628,"oldword"
"508",508,104,103,"nicest",7,561,0,"youngreal",1992,0.919231458043008,"no",6.33150184989369,"youngword"
"509",509,104,103,"impressive",4,474,1,"oldreal",1992,0.919231458043008,"no",6.16331480403464,"youngword"
"510",510,104,104,"permission",7,648,1,"youngreal",1992,0.942650062391963,"no",6.47543271670409,"oldword"
"511",511,104,104,"permission",7,648,1,"youngreal",1992,0.942650062391963,"no",6.47543271670409,"oldword"
"512",512,104,104,"respected",4,597,1,"oldreal",1992,0.942650062391963,"no",6.39359075395063,"oldword"
"513",513,104,104,"respected",4,597,1,"oldreal",1992,0.942650062391963,"no",6.39359075395063,"oldword"
"514",514,104,105,"idle",7,661,1,"youngreal",1992,0.966068666740917,"no",6.49526555593701,"oldword"
"515",515,104,105,"idle",7,661,1,"youngreal",1992,0.966068666740917,"no",6.49526555593701,"oldword"
"516",516,104,107,"willow",4,824,1,"oldreal",1992,1.01290587543883,"no",6.71538338633468,"oldword"
"517",517,104,110,"frighten",7,527,1,"youngreal",1992,1.08316168848569,"no",6.26909628370626,"oldword"
"518",518,104,113,"expensive",4,572,1,"oldreal",1992,1.15341750153255,"no",6.35088571671474,"youngword"
"519",519,104,118,"willow",7,811,1,"youngreal",1992,1.27051052327733,"no",6.69950034016168,"oldword"
"520",520,104,123,"electricity",7,1122,1,"youngreal",1992,1.3876035450221,"no",7.02375895473844,"oldword"
"521",521,104,123,"physics",4,628,1,"oldreal",1992,1.3876035450221,"no",6.44413125670044,"youngword"
"522",522,104,124,"lifting",7,603,1,"youngreal",1992,1.41102214937106,"no",6.40357419793482,"youngword"
"523",523,104,124,"lifting",7,603,1,"youngreal",1992,1.41102214937106,"no",6.40357419793482,"youngword"
"524",524,104,127,"libraries",7,977,1,"youngreal",1992,1.48127796241792,"no",6.88550967003482,"oldword"
"525",525,104,129,"fridge",7,610,1,"youngreal",1992,1.52811517111583,"no",6.4150969591716,"youngword"
"526",526,104,130,"dye",4,572,1,"oldreal",1992,1.55153377546478,"no",6.35088571671474,"youngword"
"527",527,104,132,"nicest",4,540,0,"oldreal",1992,1.59837098416269,"no",6.29341927884648,"youngword"
"528",528,104,136,"spirits",4,506,1,"oldreal",1992,1.69204540155851,"no",6.22851100359118,"youngword"
"529",529,104,136,"miners",7,584,1,"youngreal",1992,1.69204540155851,"no",6.37161184723186,"oldword"
"530",530,104,137,"chemistry",4,533,1,"oldreal",1992,1.71546400590746,"no",6.2803958389602,"youngword"
"531",531,104,137,"chemistry",4,533,1,"oldreal",1992,1.71546400590746,"no",6.2803958389602,"youngword"
"532",532,104,141,"delivered",4,747,1,"oldreal",1992,1.80913842330328,"no",6.61740297797448,"oldword"
"533",533,104,142,"video",4,421,1,"oldreal",1992,1.83255702765224,"no",6.04500531403601,"youngword"
"534",534,104,143,"libraries",4,412,1,"oldreal",1992,1.85597563200119,"no",6.02344759296103,"oldword"
"535",535,104,143,"environment",7,872,1,"youngreal",1992,1.85597563200119,"no",6.7719355558396,"youngword"
"536",536,104,156,"hymns",4,762,1,"oldreal",1992,2.1604174885376,"no",6.63725803128446,"oldword"
"537",537,104,159,"silent",4,714,1,"oldreal",1992,2.23067330158447,"no",6.57228254269401,"oldword"
"538",538,104,159,"whistle",7,634,0,"youngreal",1992,2.23067330158447,"no",6.45362499889269,"oldword"
"539",539,105,1,"dental",7,968,1,"youngreal",1993,-1.46946618555036,"no",6.87626461189077,"oldword"
"540",540,105,1,"physics",4,1009,1,"oldreal",1993,-1.46946618555036,"no",6.9177056098353,"youngword"
"541",541,105,2,"fried",7,527,1,"youngreal",1993,-1.44604758120141,"no",6.26909628370626,"oldword"
"542",542,105,2,"fried",7,527,1,"youngreal",1993,-1.44604758120141,"no",6.26909628370626,"oldword"
"543",543,105,3,"respected",7,553,1,"youngreal",1993,-1.42262897685245,"no",6.31716468674728,"oldword"
"544",544,105,4,"electricity",4,908,1,"oldreal",1993,-1.3992103725035,"no",6.81234509417748,"oldword"
"545",545,105,4,"video",7,466,1,"youngreal",1993,-1.3992103725035,"no",6.1463292576689,"youngword"
"546",546,105,5,"intellectual",4,837,1,"oldreal",1993,-1.37579176815454,"no",6.73101810048208,"youngword"
"547",547,105,5,"intellectual",4,837,1,"oldreal",1993,-1.37579176815454,"no",6.73101810048208,"youngword"
"548",548,105,5,"environment",2,587,1,"iso",1993,-1.37579176815454,"no",6.37672694789863,"youngword"
"549",549,105,5,"environment",2,587,1,"iso",1993,-1.37579176815454,"no",6.37672694789863,"youngword"
"550",550,105,5,"frighten",7,494,1,"youngreal",1993,-1.37579176815454,"no",6.20455776256869,"oldword"
"551",551,105,5,"frighten",7,494,1,"youngreal",1993,-1.37579176815454,"no",6.20455776256869,"oldword"
"552",552,105,6,"chemistry",4,626,1,"oldreal",1993,-1.35237316380559,"no",6.44094654063292,"youngword"
"553",553,105,6,"chemistry",4,626,1,"oldreal",1993,-1.35237316380559,"no",6.44094654063292,"youngword"
"554",554,105,6,"chemistry",4,626,1,"oldreal",1993,-1.35237316380559,"no",6.44094654063292,"youngword"
"555",555,105,7,"pencils",7,603,1,"youngreal",1993,-1.32895455945663,"no",6.40357419793482,"oldword"
"556",556,105,7,"expensive",2,565,1,"iso",1993,-1.32895455945663,"no",6.33859407820318,"youngword"
"557",557,105,8,"confectionery",4,820,1,"oldreal",1993,-1.30553595510768,"no",6.71052310945243,"oldword"
"558",558,105,8,"confectionery",4,820,1,"oldreal",1993,-1.30553595510768,"no",6.71052310945243,"oldword"
"559",559,105,8,"physics",7,609,1,"youngreal",1993,-1.30553595510768,"no",6.41345895716736,"youngword"
"560",560,105,8,"physics",7,609,1,"youngreal",1993,-1.30553595510768,"no",6.41345895716736,"youngword"
"561",561,105,9,"recite",4,689,1,"oldreal",1993,-1.28211735075873,"no",6.5366915975913,"oldword"
"562",562,105,9,"recite",4,689,1,"oldreal",1993,-1.28211735075873,"no",6.5366915975913,"oldword"
"563",563,105,11,"confectionery",7,697,1,"youngreal",1993,-1.23528014206082,"no",6.54821910276237,"oldword"
"564",564,105,12,"libraries",2,563,1,"iso",1993,-1.21186153771186,"no",6.33505425149806,"oldword"
"565",565,105,12,"miners",4,1030,1,"oldreal",1993,-1.21186153771186,"no",6.93828448401696,"oldword"
"566",566,105,13,"idle",2,724,1,"iso",1993,-1.18844293336291,"no",6.58617165485467,"oldword"
"567",567,105,13,"idle",2,724,1,"iso",1993,-1.18844293336291,"no",6.58617165485467,"oldword"
"568",568,105,14,"frighten",2,558,1,"iso",1993,-1.16502432901395,"no",6.3261494731551,"oldword"
"569",569,105,14,"spirits",7,655,1,"youngreal",1993,-1.16502432901395,"no",6.48616078894409,"youngword"
"570",570,105,15,"spirits",4,759,1,"oldreal",1993,-1.141605724665,"no",6.63331843328038,"youngword"
"571",571,105,15,"spirits",4,759,1,"oldreal",1993,-1.141605724665,"no",6.63331843328038,"youngword"
"572",572,105,15,"electricity",2,574,1,"iso",1993,-1.141605724665,"no",6.35437004079735,"oldword"
"573",573,105,15,"electricity",2,574,1,"iso",1993,-1.141605724665,"no",6.35437004079735,"oldword"
"574",574,105,16,"fried",4,635,1,"oldreal",1993,-1.11818712031604,"no",6.45519856334012,"oldword"
"575",575,105,16,"fried",4,635,1,"oldreal",1993,-1.11818712031604,"no",6.45519856334012,"oldword"
"576",576,105,17,"willow",4,560,1,"oldreal",1993,-1.09476851596709,"no",6.3297209055227,"oldword"
"577",577,105,17,"miners",2,570,1,"iso",1993,-1.09476851596709,"no",6.34738920965601,"oldword"
"578",578,105,19,"fireworks",2,768,1,"iso",1993,-1.04793130726918,"no",6.64509096950564,"oldword"
"579",579,105,19,"idle",7,683,1,"youngreal",1993,-1.04793130726918,"no",6.52795791762255,"oldword"
"580",580,105,20,"impressive",2,768,1,"iso",1993,-1.02451270292023,"no",6.64509096950564,"youngword"
"581",581,105,20,"impressive",2,768,1,"iso",1993,-1.02451270292023,"no",6.64509096950564,"youngword"
"582",582,105,22,"dental",2,545,1,"iso",1993,-0.977675494222316,"no",6.30261897574491,"oldword"
"583",583,105,23,"fried",2,548,1,"iso",1993,-0.954256889873361,"no",6.30809844150953,"oldword"
"584",584,105,25,"respected",2,559,1,"iso",1993,-0.907419681175452,"no",6.32793678372919,"oldword"
"585",585,105,26,"lifting",2,615,1,"iso",1993,-0.884001076826497,"no",6.42324696353352,"youngword"
"586",586,105,26,"fridge",4,887,1,"oldreal",1993,-0.884001076826497,"no",6.78897174299217,"youngword"
"587",587,105,27,"recite",2,917,1,"iso",1993,-0.860582472477543,"no",6.82219739062049,"oldword"
"588",588,105,27,"recite",2,917,1,"iso",1993,-0.860582472477543,"no",6.82219739062049,"oldword"
"589",589,105,29,"dye",4,1025,1,"oldreal",1993,-0.813745263779634,"no",6.93342302573071,"youngword"
"590",590,105,29,"spirits",2,627,1,"iso",1993,-0.813745263779634,"no",6.4425401664682,"youngword"
"591",591,105,30,"chemistry",2,713,1,"iso",1993,-0.790326659430679,"no",6.57088296233958,"youngword"
"592",592,105,30,"chemistry",2,713,1,"iso",1993,-0.790326659430679,"no",6.57088296233958,"youngword"
"593",593,105,30,"idle",4,639,1,"oldreal",1993,-0.790326659430679,"no",6.46146817635372,"oldword"
"594",594,105,30,"idle",4,639,1,"oldreal",1993,-0.790326659430679,"no",6.46146817635372,"oldword"
"595",595,105,31,"dye",2,619,1,"iso",1993,-0.766908055081724,"no",6.42971947803914,"youngword"
"596",596,105,31,"dye",2,619,1,"iso",1993,-0.766908055081724,"no",6.42971947803914,"youngword"
"597",597,105,32,"stress",2,601,1,"iso",1993,-0.74348945073277,"no",6.40025744530882,"youngword"
"598",598,105,33,"environment",4,657,1,"oldreal",1993,-0.720070846383815,"no",6.48920493132532,"youngword"
"599",599,105,33,"intellectual",2,536,1,"iso",1993,-0.720070846383815,"no",6.28599809450886,"youngword"
"600",600,105,39,"environment",7,699,1,"youngreal",1993,-0.579559220290087,"no",6.5510803350434,"youngword"
"601",601,105,39,"depressing",2,665,1,"iso",1993,-0.579559220290087,"no",6.50128967054039,"youngword"
"602",602,105,40,"whistle",7,677,1,"youngreal",1993,-0.556140615941133,"no",6.5191472879404,"oldword"
"603",603,105,40,"whistle",7,677,1,"youngreal",1993,-0.556140615941133,"no",6.5191472879404,"oldword"
"604",604,105,42,"impressive",4,682,1,"oldreal",1993,-0.509303407243224,"no",6.52649485957079,"youngword"
"605",605,105,43,"confectionery",2,731,1,"iso",1993,-0.485884802894269,"no",6.59578051396131,"oldword"
"606",606,105,45,"bitten",7,997,1,"youngreal",1993,-0.43904759419636,"no",6.90575327631146,"youngword"
"607",607,105,46,"whistle",2,564,1,"iso",1993,-0.415628989847405,"no",6.33682573114644,"oldword"
"608",608,105,47,"seventh",4,467,0,"oldreal",1993,-0.39221038549845,"no",6.14846829591765,"youngword"
"609",609,105,48,"depressing",7,674,1,"youngreal",1993,-0.368791781149496,"no",6.51471269087253,"youngword"
"610",610,105,50,"stress",7,896,1,"youngreal",1993,-0.321954572451587,"no",6.7990558620588,"youngword"
"611",611,105,50,"video",2,589,1,"iso",1993,-0.321954572451587,"no",6.38012253689976,"youngword"
"612",612,105,51,"reckon",7,633,1,"youngreal",1993,-0.298535968102632,"no",6.45204895443723,"youngword"
"613",613,105,51,"reckon",7,633,1,"youngreal",1993,-0.298535968102632,"no",6.45204895443723,"youngword"
"614",614,105,51,"beg",2,580,1,"iso",1993,-0.298535968102632,"no",6.36475075685191,"oldword"
"615",615,105,51,"beg",2,580,1,"iso",1993,-0.298535968102632,"no",6.36475075685191,"oldword"
"616",616,105,52,"pencils",2,572,1,"iso",1993,-0.275117363753677,"no",6.35088571671474,"oldword"
"617",617,105,52,"pencils",2,572,1,"iso",1993,-0.275117363753677,"no",6.35088571671474,"oldword"
"618",618,105,53,"permission",7,868,1,"youngreal",1993,-0.251698759404723,"no",6.76734312526539,"oldword"
"619",619,105,53,"permission",2,587,1,"iso",1993,-0.251698759404723,"no",6.37672694789863,"oldword"
"620",620,105,54,"dye",7,632,0,"youngreal",1993,-0.228280155055768,"no",6.45047042214418,"youngword"
"621",621,105,54,"dye",7,632,0,"youngreal",1993,-0.228280155055768,"no",6.45047042214418,"youngword"
"622",622,105,54,"lifestyle",4,731,1,"oldreal",1993,-0.228280155055768,"no",6.59578051396131,"youngword"
"623",623,105,54,"lifestyle",4,731,1,"oldreal",1993,-0.228280155055768,"no",6.59578051396131,"youngword"
"624",624,105,56,"lifestyle",2,734,1,"iso",1993,-0.181442946357859,"no",6.59987049921284,"youngword"
"625",625,105,60,"seventh",7,621,1,"youngreal",1993,-0.0877685289620404,"no",6.43294009273918,"youngword"
"626",626,105,60,"physics",2,563,1,"iso",1993,-0.0877685289620404,"no",6.33505425149806,"youngword"
"627",627,105,61,"whistle",4,615,1,"oldreal",1993,-0.0643499246130858,"no",6.42324696353352,"oldword"
"628",628,105,61,"whistle",4,615,1,"oldreal",1993,-0.0643499246130858,"no",6.42324696353352,"oldword"
"629",629,105,61,"fridge",7,562,1,"youngreal",1993,-0.0643499246130858,"no",6.33327962813969,"youngword"
"630",630,105,61,"fridge",7,562,1,"youngreal",1993,-0.0643499246130858,"no",6.33327962813969,"youngword"
"631",631,105,61,"seventh",2,563,1,"iso",1993,-0.0643499246130858,"no",6.33505425149806,"youngword"
"632",632,105,61,"seventh",2,563,1,"iso",1993,-0.0643499246130858,"no",6.33505425149806,"youngword"
"633",633,105,62,"reckon",2,628,1,"iso",1993,-0.0409313202641312,"no",6.44413125670044,"youngword"
"634",634,105,62,"reckon",2,628,1,"iso",1993,-0.0409313202641312,"no",6.44413125670044,"youngword"
"635",635,105,62,"reckon",2,628,1,"iso",1993,-0.0409313202641312,"no",6.44413125670044,"youngword"
"636",636,105,63,"survival",2,650,1,"iso",1993,-0.0175127159151765,"no",6.47850964220857,"youngword"
"637",637,105,63,"libraries",4,798,1,"oldreal",1993,-0.0175127159151765,"no",6.68336094576627,"oldword"
"638",638,105,64,"silent",2,615,1,"iso",1993,0.00590588843377808,"no",6.42324696353352,"oldword"
"639",639,105,64,"silent",2,615,1,"iso",1993,0.00590588843377808,"no",6.42324696353352,"oldword"
"640",640,105,65,"beg",7,728,1,"youngreal",1993,0.0293244927827327,"no",6.59167373200866,"oldword"
"641",641,105,65,"silent",4,804,1,"oldreal",1993,0.0293244927827327,"no",6.69084227741856,"oldword"
"642",642,105,68,"delivered",2,774,1,"iso",1993,0.0995803058295965,"no",6.65286302935335,"oldword"
"643",643,105,69,"hymns",2,718,1,"iso",1993,0.122998910178551,"no",6.57786135772105,"oldword"
"644",644,105,70,"nicest",2,615,1,"iso",1993,0.146417514527506,"no",6.42324696353352,"youngword"
"645",645,105,71,"fridge",2,645,1,"iso",1993,0.16983611887646,"no",6.4707995037826,"youngword"
"646",646,105,71,"respected",4,772,1,"oldreal",1993,0.16983611887646,"no",6.65027904858742,"oldword"
"647",647,105,72,"guide",7,700,1,"youngreal",1993,0.193254723225415,"no",6.55250788703459,"youngword"
"648",648,105,72,"guide",7,700,1,"youngreal",1993,0.193254723225415,"no",6.55250788703459,"youngword"
"649",649,105,72,"guide",2,539,1,"iso",1993,0.193254723225415,"no",6.29156913955832,"youngword"
"650",650,105,72,"guide",2,539,1,"iso",1993,0.193254723225415,"no",6.29156913955832,"youngword"
"651",651,105,75,"willow",2,587,1,"iso",1993,0.263510536272279,"no",6.37672694789863,"oldword"
"652",652,105,76,"survival",4,968,1,"oldreal",1993,0.286929140621233,"no",6.87626461189077,"youngword"
"653",653,105,82,"miners",7,683,1,"youngreal",1993,0.427440766714961,"no",6.52795791762255,"oldword"
"654",654,105,85,"hymns",7,665,1,"youngreal",1993,0.497696579761825,"no",6.50128967054039,"oldword"
"655",655,105,91,"recite",7,811,1,"youngreal",1993,0.638208205855553,"no",6.69950034016168,"oldword"
"656",656,105,92,"nicest",4,579,1,"oldreal",1993,0.661626810204507,"no",6.36302810354046,"youngword"
"657",657,105,96,"stress",4,637,1,"oldreal",1993,0.755301227600326,"no",6.45833828334479,"youngword"
"658",658,105,97,"beg",4,570,1,"oldreal",1993,0.77871983194928,"no",6.34738920965601,"oldword"
"659",659,105,100,"lifting",4,926,1,"oldreal",1993,0.848975644996144,"no",6.83195356556585,"youngword"
"660",660,105,102,"hymns",4,582,1,"oldreal",1993,0.895812853694054,"no",6.36818718635049,"oldword"
"661",661,105,103,"depressing",4,597,1,"oldreal",1993,0.919231458043008,"no",6.39359075395063,"youngword"
"662",662,105,108,"survival",7,592,1,"youngreal",1993,1.03632447978778,"no",6.38519439899773,"youngword"
"663",663,105,112,"permission",4,548,1,"oldreal",1993,1.1299988971836,"no",6.30809844150953,"oldword"
"664",664,105,114,"electricity",7,615,1,"youngreal",1993,1.17683610588151,"no",6.42324696353352,"oldword"
"665",665,105,114,"guide",4,762,1,"oldreal",1993,1.17683610588151,"no",6.63725803128446,"youngword"
"666",666,105,117,"mittens",4,644,1,"oldreal",1993,1.24709191892837,"no",6.46925031679577,"oldword"
"667",667,105,119,"libraries",7,737,1,"youngreal",1993,1.29392912762628,"no",6.60394382460047,"oldword"
"668",668,105,120,"expensive",4,725,1,"oldreal",1993,1.31734773197524,"no",6.5875500148248,"youngword"
"669",669,105,124,"lifting",7,693,1,"youngreal",1993,1.41102214937106,"no",6.5424719605068,"youngword"
"670",670,105,127,"pencils",4,619,1,"oldreal",1993,1.48127796241792,"no",6.42971947803914,"oldword"
"671",671,105,127,"chemistry",7,547,1,"youngreal",1993,1.48127796241792,"no",6.30627528694802,"youngword"
"672",672,105,130,"fireworks",7,590,1,"youngreal",1993,1.55153377546478,"no",6.3818160174061,"oldword"
"673",673,105,130,"frighten",4,808,1,"oldreal",1993,1.55153377546478,"no",6.69579891705849,"oldword"
"674",674,105,134,"silent",7,621,0,"youngreal",1993,1.6452081928606,"no",6.43294009273918,"oldword"
"675",675,105,139,"bitten",4,668,1,"oldreal",1993,1.76230121460537,"no",6.50578406012823,"youngword"
"676",676,105,139,"lifestyle",7,723,1,"youngreal",1993,1.76230121460537,"no",6.58479139238572,"youngword"
"677",677,105,140,"fireworks",4,576,1,"oldreal",1993,1.78571981895433,"no",6.3578422665081,"oldword"
"678",678,105,140,"fireworks",4,576,1,"oldreal",1993,1.78571981895433,"no",6.3578422665081,"oldword"
"679",679,105,141,"reckon",4,590,1,"oldreal",1993,1.80913842330328,"no",6.3818160174061,"youngword"
"680",680,105,149,"willow",7,701,1,"youngreal",1993,1.99648725809492,"no",6.55393340402581,"oldword"
"681",681,105,150,"mittens",7,560,1,"youngreal",1993,2.01990586244388,"no",6.3297209055227,"oldword"
"682",682,105,151,"dental",4,686,1,"oldreal",1993,2.04332446679283,"no",6.53233429222235,"oldword"
"683",683,105,153,"delivered",4,685,1,"oldreal",1993,2.09016167549074,"no",6.53087762772588,"oldword"
"684",684,105,156,"nicest",7,653,1,"youngreal",1993,2.1604174885376,"no",6.4831073514572,"youngword"
"685",685,105,157,"video",4,804,1,"oldreal",1993,2.18383609288656,"no",6.69084227741856,"youngword"
"686",686,105,157,"expensive",7,538,1,"youngreal",1993,2.18383609288656,"no",6.289715570909,"youngword"
"687",687,106,3,"seventh",2,673,1,"iso",1992,-1.42262897685245,"no",6.51323011091231,"youngword"
"688",688,106,4,"pencils",4,797,1,"oldreal",1992,-1.3992103725035,"no",6.68210859744981,"oldword"
"689",689,106,5,"hymns",4,707,1,"oldreal",1992,-1.37579176815454,"no",6.56244409369372,"oldword"
"690",690,106,5,"respected",2,550,1,"iso",1992,-1.37579176815454,"no",6.31173480915291,"oldword"
"691",691,106,6,"chemistry",4,510,1,"oldreal",1992,-1.35237316380559,"no",6.2363695902037,"youngword"
"692",692,106,6,"chemistry",4,510,1,"oldreal",1992,-1.35237316380559,"no",6.2363695902037,"youngword"
"693",693,106,7,"survival",4,529,1,"oldreal",1992,-1.32895455945663,"no",6.27287700654617,"youngword"
"694",694,106,8,"depressing",2,880,1,"iso",1992,-1.30553595510768,"no",6.78105762593618,"youngword"
"695",695,106,8,"willow",4,531,1,"oldreal",1992,-1.30553595510768,"no",6.27664348934164,"oldword"
"696",696,106,10,"intellectual",4,545,1,"oldreal",1992,-1.25869874640977,"no",6.30261897574491,"youngword"
"697",697,106,10,"fireworks",7,694,1,"youngreal",1992,-1.25869874640977,"no",6.54391184556479,"oldword"
"698",698,106,12,"fireworks",4,636,1,"oldreal",1992,-1.21186153771186,"no",6.45676965557216,"oldword"
"699",699,106,14,"fireworks",2,704,1,"iso",1992,-1.16502432901395,"no",6.55819780281227,"oldword"
"700",700,106,14,"lifestyle",4,514,1,"oldreal",1992,-1.16502432901395,"no",6.24416690066374,"youngword"
"701",701,106,15,"video",7,1178,0,"youngreal",1992,-1.141605724665,"no",7.07242190053737,"youngword"
"702",702,106,15,"video",7,1178,0,"youngreal",1992,-1.141605724665,"no",7.07242190053737,"youngword"
"703",703,106,15,"chemistry",2,561,1,"iso",1992,-1.141605724665,"no",6.33150184989369,"youngword"
"704",704,106,15,"chemistry",2,561,1,"iso",1992,-1.141605724665,"no",6.33150184989369,"youngword"
"705",705,106,15,"delivered",4,525,1,"oldreal",1992,-1.141605724665,"no",6.26530121273771,"oldword"
"706",706,106,15,"delivered",4,525,1,"oldreal",1992,-1.141605724665,"no",6.26530121273771,"oldword"
"707",707,106,16,"guide",7,742,1,"youngreal",1992,-1.11818712031604,"no",6.61069604471776,"youngword"
"708",708,106,16,"guide",7,742,1,"youngreal",1992,-1.11818712031604,"no",6.61069604471776,"youngword"
"709",709,106,16,"guide",7,742,1,"youngreal",1992,-1.11818712031604,"no",6.61069604471776,"youngword"
"710",710,106,17,"fridge",2,564,1,"iso",1992,-1.09476851596709,"no",6.33682573114644,"youngword"
"711",711,106,18,"chemistry",7,636,1,"youngreal",1992,-1.07134991161813,"no",6.45676965557216,"youngword"
"712",712,106,19,"seventh",4,581,1,"oldreal",1992,-1.04793130726918,"no",6.36647044773144,"youngword"
"713",713,106,19,"idle",2,660,1,"iso",1992,-1.04793130726918,"no",6.49375383985169,"oldword"
"714",714,106,21,"miners",2,961,1,"iso",1992,-1.00109409857127,"no",6.86901445066571,"oldword"
"715",715,106,22,"intellectual",7,875,1,"youngreal",1992,-0.977675494222316,"no",6.77536609093639,"youngword"
"716",716,106,23,"whistle",2,631,1,"iso",1992,-0.954256889873361,"no",6.44888939414686,"oldword"
"717",717,106,24,"lifestyle",2,533,1,"iso",1992,-0.930838285524407,"no",6.2803958389602,"youngword"
"718",718,106,25,"pencils",2,502,1,"iso",1992,-0.907419681175452,"no",6.22059017009974,"oldword"
"719",719,106,26,"hymns",2,657,1,"iso",1992,-0.884001076826497,"no",6.48920493132532,"oldword"
"720",720,106,27,"video",4,571,0,"oldreal",1992,-0.860582472477543,"no",6.3491389913798,"youngword"
"721",721,106,28,"expensive",2,492,1,"iso",1992,-0.837163868128588,"no",6.20050917404269,"youngword"
"722",722,106,29,"frighten",7,634,1,"youngreal",1992,-0.813745263779634,"no",6.45362499889269,"oldword"
"723",723,106,30,"frighten",2,583,1,"iso",1992,-0.790326659430679,"no",6.36990098282823,"oldword"
"724",724,106,31,"impressive",2,527,1,"iso",1992,-0.766908055081724,"no",6.26909628370626,"youngword"
"725",725,106,32,"delivered",2,481,1,"iso",1992,-0.74348945073277,"no",6.1779441140506,"oldword"
"726",726,106,34,"fried",7,764,1,"youngreal",1992,-0.69665224203486,"no",6.63987583382654,"oldword"
"727",727,106,34,"fried",2,515,1,"iso",1992,-0.69665224203486,"no",6.24610676548156,"oldword"
"728",728,106,37,"electricity",2,1009,0,"iso",1992,-0.626396428987997,"no",6.9177056098353,"oldword"
"729",729,106,39,"permission",4,709,1,"oldreal",1992,-0.579559220290087,"no",6.56526497003536,"oldword"
"730",730,106,39,"stress",2,1000,1,"iso",1992,-0.579559220290087,"no",6.90875477931522,"youngword"
"731",731,106,40,"willow",7,750,1,"youngreal",1992,-0.556140615941133,"no",6.62140565176413,"oldword"
"732",732,106,40,"willow",7,750,1,"youngreal",1992,-0.556140615941133,"no",6.62140565176413,"oldword"
"733",733,106,41,"depressing",7,566,1,"youngreal",1992,-0.532722011592178,"no",6.34035930372775,"youngword"
"734",734,106,42,"survival",2,661,1,"iso",1992,-0.509303407243224,"no",6.49526555593701,"youngword"
"735",735,106,43,"permission",2,690,1,"iso",1992,-0.485884802894269,"no",6.53813982376767,"oldword"
"736",736,106,44,"survival",7,547,0,"youngreal",1992,-0.462466198545314,"no",6.30627528694802,"youngword"
"737",737,106,44,"intellectual",2,510,1,"iso",1992,-0.462466198545314,"no",6.2363695902037,"youngword"
"738",738,106,45,"dental",2,467,1,"iso",1992,-0.43904759419636,"no",6.14846829591765,"oldword"
"739",739,106,45,"dental",2,467,1,"iso",1992,-0.43904759419636,"no",6.14846829591765,"oldword"
"740",740,106,46,"guide",2,437,1,"iso",1992,-0.415628989847405,"no",6.08221891037645,"youngword"
"741",741,106,46,"lifting",7,1119,1,"youngreal",1992,-0.415628989847405,"no",7.02108396428914,"youngword"
"742",742,106,49,"spirits",4,681,1,"oldreal",1992,-0.345373176800541,"no",6.52502965784346,"youngword"
"743",743,106,51,"confectionery",7,587,1,"youngreal",1992,-0.298535968102632,"no",6.37672694789863,"oldword"
"744",744,106,52,"beg",4,866,0,"oldreal",1992,-0.275117363753677,"no",6.76503897678054,"oldword"
"745",745,106,52,"confectionery",2,561,1,"iso",1992,-0.275117363753677,"no",6.33150184989369,"oldword"
"746",746,106,53,"dye",2,538,1,"iso",1992,-0.251698759404723,"no",6.289715570909,"youngword"
"747",747,106,53,"dye",2,538,1,"iso",1992,-0.251698759404723,"no",6.289715570909,"youngword"
"748",748,106,53,"frighten",4,651,1,"oldreal",1992,-0.251698759404723,"no",6.48004456192665,"oldword"
"749",749,106,53,"frighten",4,651,1,"oldreal",1992,-0.251698759404723,"no",6.48004456192665,"oldword"
"750",750,106,55,"whistle",4,525,1,"oldreal",1992,-0.204861550706813,"no",6.26530121273771,"oldword"
"751",751,106,55,"willow",2,1033,1,"iso",1992,-0.204861550706813,"no",6.94119005506837,"oldword"
"752",752,106,57,"silent",7,672,1,"youngreal",1992,-0.158024342008904,"no",6.51174532964473,"oldword"
"753",753,106,58,"whistle",7,612,1,"youngreal",1992,-0.13460573765995,"no",6.41836493593621,"oldword"
"754",754,106,58,"libraries",4,600,1,"oldreal",1992,-0.13460573765995,"no",6.39859493453521,"oldword"
"755",755,106,58,"physics",2,850,1,"iso",1992,-0.13460573765995,"no",6.74641212857337,"youngword"
"756",756,106,59,"bitten",2,760,1,"iso",1992,-0.111187133310995,"no",6.63463335786169,"youngword"
"757",757,106,59,"bitten",2,760,1,"iso",1992,-0.111187133310995,"no",6.63463335786169,"youngword"
"758",758,106,59,"bitten",2,760,1,"iso",1992,-0.111187133310995,"no",6.63463335786169,"youngword"
"759",759,106,60,"beg",2,599,1,"iso",1992,-0.0877685289620404,"no",6.39692965521615,"oldword"
"760",760,106,61,"electricity",7,686,1,"youngreal",1992,-0.0643499246130858,"no",6.53233429222235,"oldword"
"761",761,106,63,"spirits",2,545,1,"iso",1992,-0.0175127159151765,"no",6.30261897574491,"youngword"
"762",762,106,66,"recite",2,617,0,"iso",1992,0.0527430971316873,"no",6.42648845745769,"oldword"
"763",763,106,68,"dental",7,777,1,"youngreal",1992,0.0995803058295965,"no",6.65672652417839,"oldword"
"764",764,106,69,"video",2,537,1,"iso",1992,0.122998910178551,"no",6.28785856016178,"youngword"
"765",765,106,70,"dental",4,612,1,"oldreal",1992,0.146417514527506,"no",6.41836493593621,"oldword"
"766",766,106,70,"libraries",2,555,1,"iso",1992,0.146417514527506,"no",6.32076829425058,"oldword"
"767",767,106,72,"lifting",2,582,1,"iso",1992,0.193254723225415,"no",6.36818718635049,"youngword"
"768",768,106,72,"nicest",4,1017,0,"oldreal",1992,0.193254723225415,"no",6.92559519711047,"youngword"
"769",769,106,73,"miners",4,734,1,"oldreal",1992,0.21667332757437,"no",6.59987049921284,"oldword"
"770",770,106,73,"miners",4,734,1,"oldreal",1992,0.21667332757437,"no",6.59987049921284,"oldword"
"771",771,106,74,"mittens",2,515,1,"iso",1992,0.240091931923324,"no",6.24610676548156,"oldword"
"772",772,106,75,"silent",2,597,1,"iso",1992,0.263510536272279,"no",6.39359075395063,"oldword"
"773",773,106,76,"dye",7,606,1,"youngreal",1992,0.286929140621233,"no",6.4085287910595,"youngword"
"774",774,106,76,"nicest",2,556,1,"iso",1992,0.286929140621233,"no",6.32256523992728,"youngword"
"775",775,106,76,"bitten",4,582,1,"oldreal",1992,0.286929140621233,"no",6.36818718635049,"youngword"
"776",776,106,77,"environment",2,524,1,"iso",1992,0.310347744970188,"no",6.26339826259162,"youngword"
"777",777,106,77,"environment",2,524,1,"iso",1992,0.310347744970188,"no",6.26339826259162,"youngword"
"778",778,106,77,"environment",2,524,1,"iso",1992,0.310347744970188,"no",6.26339826259162,"youngword"
"779",779,106,79,"fridge",4,564,0,"oldreal",1992,0.357184953668097,"no",6.33682573114644,"youngword"
"780",780,106,80,"miners",7,890,1,"youngreal",1992,0.380603558017052,"no",6.79234442747081,"oldword"
"781",781,106,82,"pencils",7,541,1,"youngreal",1992,0.427440766714961,"no",6.29526600143965,"oldword"
"782",782,106,83,"hymns",7,551,1,"youngreal",1992,0.450859371063916,"no",6.31354804627709,"oldword"
"783",783,106,84,"delivered",7,463,1,"youngreal",1992,0.47427797541287,"no",6.13988455222626,"oldword"
"784",784,106,85,"stress",4,1028,1,"oldreal",1992,0.497696579761825,"no",6.93634273583405,"youngword"
"785",785,106,87,"permission",7,742,1,"youngreal",1992,0.544533788459734,"no",6.61069604471776,"oldword"
"786",786,106,89,"guide",4,756,1,"oldreal",1992,0.591370997157644,"no",6.62936325343745,"youngword"
"787",787,106,93,"beg",7,774,1,"youngreal",1992,0.685045414553462,"no",6.65286302935335,"oldword"
"788",788,106,95,"nicest",7,803,1,"youngreal",1992,0.731882623251371,"no",6.68959926917897,"youngword"
"789",789,106,97,"physics",7,579,1,"youngreal",1992,0.77871983194928,"no",6.36302810354046,"youngword"
"790",790,106,98,"seventh",7,796,1,"youngreal",1992,0.802138436298235,"no",6.68085467879022,"youngword"
"791",791,106,101,"environment",4,757,1,"oldreal",1992,0.872394249345099,"no",6.63068338564237,"youngword"
"792",792,106,103,"electricity",4,775,1,"oldreal",1992,0.919231458043008,"no",6.65415252018322,"oldword"
"793",793,106,106,"impressive",7,593,1,"youngreal",1992,0.989487271089872,"no",6.38687931936265,"youngword"
"794",794,106,109,"lifestyle",7,915,1,"youngreal",1992,1.05974308413674,"no",6.82001636467413,"youngword"
"795",795,106,109,"dye",4,873,1,"oldreal",1992,1.05974308413674,"no",6.77308037565554,"youngword"
"796",796,106,110,"respected",4,541,1,"oldreal",1992,1.08316168848569,"no",6.29526600143965,"oldword"
"797",797,106,110,"respected",4,541,1,"oldreal",1992,1.08316168848569,"no",6.29526600143965,"oldword"
"798",798,106,112,"stress",7,543,1,"youngreal",1992,1.1299988971836,"no",6.29894924685594,"youngword"
"799",799,106,114,"impressive",4,598,1,"oldreal",1992,1.17683610588151,"no",6.39526159811545,"youngword"
"800",800,106,116,"lifting",4,1211,1,"oldreal",1992,1.22367331457942,"no",7.10002716662926,"youngword"
"801",801,106,117,"spirits",7,686,1,"youngreal",1992,1.24709191892837,"no",6.53233429222235,"youngword"
"802",802,106,121,"physics",4,783,1,"oldreal",1992,1.34076633632419,"no",6.66440902035041,"youngword"
"803",803,106,122,"depressing",4,541,1,"oldreal",1992,1.36418494067315,"no",6.29526600143965,"youngword"
"804",804,106,127,"respected",7,600,0,"youngreal",1992,1.48127796241792,"no",6.39859493453521,"oldword"
"805",805,106,130,"bitten",7,964,1,"youngreal",1992,1.55153377546478,"no",6.87212810133899,"youngword"
"806",806,106,133,"confectionery",4,649,1,"oldreal",1992,1.62178958851165,"no",6.47697236288968,"oldword"
"807",807,106,136,"fried",4,606,1,"oldreal",1992,1.69204540155851,"no",6.4085287910595,"oldword"
"808",808,106,137,"mittens",7,672,1,"youngreal",1992,1.71546400590746,"no",6.51174532964473,"oldword"
"809",809,106,138,"idle",7,555,0,"youngreal",1992,1.73888261025642,"no",6.32076829425058,"oldword"
"810",810,106,139,"expensive",4,723,1,"oldreal",1992,1.76230121460537,"no",6.58479139238572,"youngword"
"811",811,106,141,"environment",7,810,0,"youngreal",1992,1.80913842330328,"no",6.69826805411541,"youngword"
"812",812,106,147,"idle",4,942,1,"oldreal",1992,1.94965004939701,"no",6.84906628263346,"oldword"
"813",813,106,149,"fridge",7,660,1,"youngreal",1992,1.99648725809492,"no",6.49375383985169,"youngword"
"814",814,106,151,"silent",4,755,1,"oldreal",1992,2.04332446679283,"no",6.62804137617953,"oldword"
"815",815,106,159,"recite",4,738,1,"oldreal",1992,2.23067330158447,"no",6.6052979209482,"oldword"
"816",816,107,1,"chemistry",4,731,1,"oldreal",1992,-1.46946618555036,"no",6.59578051396131,"youngword"
"817",817,107,3,"physics",2,882,1,"iso",1992,-1.42262897685245,"no",6.78332520060396,"youngword"
"818",818,107,4,"dental",4,687,1,"oldreal",1992,-1.3992103725035,"no",6.53378883793334,"oldword"
"819",819,107,5,"video",2,595,0,"iso",1992,-1.37579176815454,"no",6.39024066706535,"youngword"
"820",820,107,5,"respected",7,721,1,"youngreal",1992,-1.37579176815454,"no",6.58202513889283,"oldword"
"821",821,107,6,"pencils",2,778,1,"iso",1992,-1.35237316380559,"no",6.65801104587075,"oldword"
"822",822,107,6,"pencils",2,778,1,"iso",1992,-1.35237316380559,"no",6.65801104587075,"oldword"
"823",823,107,6,"beg",7,595,1,"youngreal",1992,-1.35237316380559,"no",6.39024066706535,"oldword"
"824",824,107,6,"beg",7,595,1,"youngreal",1992,-1.35237316380559,"no",6.39024066706535,"oldword"
"825",825,107,7,"electricity",2,984,1,"iso",1992,-1.32895455945663,"no",6.89264164117209,"oldword"
"826",826,107,7,"electricity",2,984,1,"iso",1992,-1.32895455945663,"no",6.89264164117209,"oldword"
"827",827,107,7,"expensive",4,608,1,"oldreal",1992,-1.32895455945663,"no",6.4118182677099,"youngword"
"828",828,107,7,"expensive",4,608,1,"oldreal",1992,-1.32895455945663,"no",6.4118182677099,"youngword"
"829",829,107,7,"physics",7,489,1,"youngreal",1992,-1.32895455945663,"no",6.19440539110467,"youngword"
"830",830,107,7,"physics",7,489,1,"youngreal",1992,-1.32895455945663,"no",6.19440539110467,"youngword"
"831",831,107,8,"respected",2,696,1,"iso",1992,-1.30553595510768,"no",6.54678541076052,"oldword"
"832",832,107,8,"respected",2,696,1,"iso",1992,-1.30553595510768,"no",6.54678541076052,"oldword"
"833",833,107,8,"respected",2,696,1,"iso",1992,-1.30553595510768,"no",6.54678541076052,"oldword"
"834",834,107,9,"reckon",2,627,1,"iso",1992,-1.28211735075873,"no",6.4425401664682,"youngword"
"835",835,107,10,"whistle",2,601,1,"iso",1992,-1.25869874640977,"no",6.40025744530882,"oldword"
"836",836,107,11,"delivered",7,1021,1,"youngreal",1992,-1.23528014206082,"no",6.92951677076365,"oldword"
"837",837,107,13,"nicest",2,641,1,"iso",1992,-1.18844293336291,"no",6.46458830368996,"youngword"
"838",838,107,13,"intellectual",4,651,1,"oldreal",1992,-1.18844293336291,"no",6.48004456192665,"youngword"
"839",839,107,15,"bitten",2,701,1,"iso",1992,-1.141605724665,"no",6.55393340402581,"youngword"
"840",840,107,16,"fridge",2,542,1,"iso",1992,-1.11818712031604,"no",6.29710931993394,"youngword"
"841",841,107,16,"mittens",7,690,1,"youngreal",1992,-1.11818712031604,"no",6.53813982376767,"oldword"
"842",842,107,17,"spirits",4,802,1,"oldreal",1992,-1.09476851596709,"no",6.68835471394676,"youngword"
"843",843,107,17,"spirits",4,802,1,"oldreal",1992,-1.09476851596709,"no",6.68835471394676,"youngword"
"844",844,107,17,"lifting",2,529,1,"iso",1992,-1.09476851596709,"no",6.27287700654617,"youngword"
"845",845,107,17,"lifting",2,529,1,"iso",1992,-1.09476851596709,"no",6.27287700654617,"youngword"
"846",846,107,19,"impressive",2,663,1,"iso",1992,-1.04793130726918,"no",6.49828214947643,"youngword"
"847",847,107,20,"willow",2,820,1,"iso",1992,-1.02451270292023,"no",6.71052310945243,"oldword"
"848",848,107,21,"chemistry",2,521,1,"iso",1992,-1.00109409857127,"no",6.25766758788264,"youngword"
"849",849,107,23,"fridge",4,578,1,"oldreal",1992,-0.954256889873361,"no",6.361302477573,"youngword"
"850",850,107,24,"permission",2,592,1,"iso",1992,-0.930838285524407,"no",6.38519439899773,"oldword"
"851",851,107,24,"idle",4,690,1,"oldreal",1992,-0.930838285524407,"no",6.53813982376767,"oldword"
"852",852,107,25,"expensive",2,615,1,"iso",1992,-0.907419681175452,"no",6.42324696353352,"youngword"
"853",853,107,25,"expensive",2,615,1,"iso",1992,-0.907419681175452,"no",6.42324696353352,"youngword"
"854",854,107,25,"pencils",4,830,1,"oldreal",1992,-0.907419681175452,"no",6.72262979485545,"oldword"
"855",855,107,25,"pencils",4,830,1,"oldreal",1992,-0.907419681175452,"no",6.72262979485545,"oldword"
"856",856,107,26,"lifting",7,589,1,"youngreal",1992,-0.884001076826497,"no",6.38012253689976,"youngword"
"857",857,107,26,"lifting",7,589,1,"youngreal",1992,-0.884001076826497,"no",6.38012253689976,"youngword"
"858",858,107,27,"seventh",2,669,1,"iso",1992,-0.860582472477543,"no",6.50727771238501,"youngword"
"859",859,107,30,"depressing",4,597,1,"oldreal",1992,-0.790326659430679,"no",6.39359075395063,"youngword"
"860",860,107,30,"survival",2,668,1,"iso",1992,-0.790326659430679,"no",6.50578406012823,"youngword"
"861",861,107,31,"mittens",2,606,1,"iso",1992,-0.766908055081724,"no",6.4085287910595,"oldword"
"862",862,107,31,"mittens",2,606,1,"iso",1992,-0.766908055081724,"no",6.4085287910595,"oldword"
"863",863,107,31,"chemistry",7,650,1,"youngreal",1992,-0.766908055081724,"no",6.47850964220857,"youngword"
"864",864,107,31,"chemistry",7,650,1,"youngreal",1992,-0.766908055081724,"no",6.47850964220857,"youngword"
"865",865,107,32,"dye",7,654,1,"youngreal",1992,-0.74348945073277,"no",6.48463523563525,"youngword"
"866",866,107,32,"dye",7,654,1,"youngreal",1992,-0.74348945073277,"no",6.48463523563525,"youngword"
"867",867,107,33,"beg",2,701,1,"iso",1992,-0.720070846383815,"no",6.55393340402581,"oldword"
"868",868,107,34,"environment",2,880,1,"iso",1992,-0.69665224203486,"no",6.78105762593618,"youngword"
"869",869,107,35,"confectionery",2,611,1,"iso",1992,-0.673233637685906,"no",6.41673228251233,"oldword"
"870",870,107,35,"libraries",7,555,1,"youngreal",1992,-0.673233637685906,"no",6.32076829425058,"oldword"
"871",871,107,37,"guide",7,637,1,"youngreal",1992,-0.626396428987997,"no",6.45833828334479,"youngword"
"872",872,107,37,"libraries",2,666,1,"iso",1992,-0.626396428987997,"no",6.50279004591562,"oldword"
"873",873,107,38,"miners",2,1038,1,"iso",1992,-0.602977824639042,"no",6.94601399109923,"oldword"
"874",874,107,38,"miners",2,1038,1,"iso",1992,-0.602977824639042,"no",6.94601399109923,"oldword"
"875",875,107,39,"dye",2,571,1,"iso",1992,-0.579559220290087,"no",6.3491389913798,"youngword"
"876",876,107,40,"fried",2,707,1,"iso",1992,-0.556140615941133,"no",6.56244409369372,"oldword"
"877",877,107,44,"whistle",7,810,1,"youngreal",1992,-0.462466198545314,"no",6.69826805411541,"oldword"
"878",878,107,44,"recite",2,692,1,"iso",1992,-0.462466198545314,"no",6.5410299991899,"oldword"
"879",879,107,45,"guide",2,499,1,"iso",1992,-0.43904759419636,"no",6.21460809842219,"youngword"
"880",880,107,45,"guide",2,499,1,"iso",1992,-0.43904759419636,"no",6.21460809842219,"youngword"
"881",881,107,45,"depressing",7,537,1,"youngreal",1992,-0.43904759419636,"no",6.28785856016178,"youngword"
"882",882,107,45,"depressing",7,537,1,"youngreal",1992,-0.43904759419636,"no",6.28785856016178,"youngword"
"883",883,107,46,"survival",7,514,1,"youngreal",1992,-0.415628989847405,"no",6.24416690066374,"youngword"
"884",884,107,46,"survival",7,514,1,"youngreal",1992,-0.415628989847405,"no",6.24416690066374,"youngword"
"885",885,107,46,"delivered",2,542,1,"iso",1992,-0.415628989847405,"no",6.29710931993394,"oldword"
"886",886,107,46,"delivered",2,542,1,"iso",1992,-0.415628989847405,"no",6.29710931993394,"oldword"
"887",887,107,47,"permission",4,625,1,"oldreal",1992,-0.39221038549845,"no",6.4393503711001,"oldword"
"888",888,107,47,"permission",4,625,1,"oldreal",1992,-0.39221038549845,"no",6.4393503711001,"oldword"
"889",889,107,48,"frighten",2,561,1,"iso",1992,-0.368791781149496,"no",6.33150184989369,"oldword"
"890",890,107,48,"frighten",4,551,1,"oldreal",1992,-0.368791781149496,"no",6.31354804627709,"oldword"
"891",891,107,49,"fireworks",2,641,1,"iso",1992,-0.345373176800541,"no",6.46458830368996,"oldword"
"892",892,107,49,"fireworks",2,641,1,"iso",1992,-0.345373176800541,"no",6.46458830368996,"oldword"
"893",893,107,51,"confectionery",7,736,1,"youngreal",1992,-0.298535968102632,"no",6.60258789218934,"oldword"
"894",894,107,52,"miners",7,759,1,"youngreal",1992,-0.275117363753677,"no",6.63331843328038,"oldword"
"895",895,107,54,"stress",4,1023,1,"oldreal",1992,-0.228280155055768,"no",6.93147180559945,"youngword"
"896",896,107,55,"hymns",2,641,1,"iso",1992,-0.204861550706813,"no",6.46458830368996,"oldword"
"897",897,107,56,"dental",7,958,1,"youngreal",1992,-0.181442946357859,"no",6.86589107488344,"oldword"
"898",898,107,56,"silent",2,534,1,"iso",1992,-0.181442946357859,"no",6.28226674689601,"oldword"
"899",899,107,57,"whistle",4,605,1,"oldreal",1992,-0.158024342008904,"no",6.40687998606931,"oldword"
"900",900,107,57,"whistle",4,605,1,"oldreal",1992,-0.158024342008904,"no",6.40687998606931,"oldword"
"901",901,107,57,"nicest",7,574,1,"youngreal",1992,-0.158024342008904,"no",6.35437004079735,"youngword"
"902",902,107,57,"nicest",7,574,1,"youngreal",1992,-0.158024342008904,"no",6.35437004079735,"youngword"
"903",903,107,57,"lifestyle",2,568,1,"iso",1992,-0.158024342008904,"no",6.34388043412633,"youngword"
"904",904,107,57,"lifestyle",2,568,1,"iso",1992,-0.158024342008904,"no",6.34388043412633,"youngword"
"905",905,107,58,"delivered",4,548,1,"oldreal",1992,-0.13460573765995,"no",6.30809844150953,"oldword"
"906",906,107,58,"delivered",4,548,1,"oldreal",1992,-0.13460573765995,"no",6.30809844150953,"oldword"
"907",907,107,58,"delivered",4,548,1,"oldreal",1992,-0.13460573765995,"no",6.30809844150953,"oldword"
"908",908,107,60,"spirits",7,524,1,"youngreal",1992,-0.0877685289620404,"no",6.26339826259162,"youngword"
"909",909,107,61,"stress",2,626,1,"iso",1992,-0.0643499246130858,"no",6.44094654063292,"youngword"
"910",910,107,66,"lifestyle",4,606,1,"oldreal",1992,0.0527430971316873,"no",6.4085287910595,"youngword"
"911",911,107,70,"dental",2,607,1,"iso",1992,0.146417514527506,"no",6.41017488196617,"oldword"
"912",912,107,70,"lifting",4,684,1,"oldreal",1992,0.146417514527506,"no",6.52941883826223,"youngword"
"913",913,107,74,"spirits",2,647,1,"iso",1992,0.240091931923324,"no",6.47389069635227,"youngword"
"914",914,107,76,"idle",2,726,1,"iso",1992,0.286929140621233,"no",6.58892647753352,"oldword"
"915",915,107,79,"fried",7,949,1,"youngreal",1992,0.357184953668097,"no",6.85646198459459,"oldword"
"916",916,107,80,"intellectual",2,618,1,"iso",1992,0.380603558017052,"no",6.4281052726846,"youngword"
"917",917,107,80,"willow",4,800,1,"oldreal",1992,0.380603558017052,"no",6.68586094706836,"oldword"
"918",918,107,89,"beg",4,568,1,"oldreal",1992,0.591370997157644,"no",6.34388043412633,"oldword"
"919",919,107,90,"recite",4,528,1,"oldreal",1992,0.614789601506598,"no",6.2709884318583,"oldword"
"920",920,107,91,"nicest",4,514,1,"oldreal",1992,0.638208205855553,"no",6.24416690066374,"youngword"
"921",921,107,96,"silent",7,843,1,"youngreal",1992,0.755301227600326,"no",6.73815249459596,"oldword"
"922",922,107,98,"environment",7,649,1,"youngreal",1992,0.802138436298235,"no",6.47697236288968,"youngword"
"923",923,107,100,"recite",7,667,1,"youngreal",1992,0.848975644996144,"no",6.50428817353665,"oldword"
"924",924,107,103,"guide",4,824,1,"oldreal",1992,0.919231458043008,"no",6.71538338633468,"youngword"
"925",925,107,107,"survival",4,633,1,"oldreal",1992,1.01290587543883,"no",6.45204895443723,"youngword"
"926",926,107,108,"impressive",4,622,1,"oldreal",1992,1.03632447978778,"no",6.43454651878745,"youngword"
"927",927,107,110,"confectionery",4,634,1,"oldreal",1992,1.08316168848569,"no",6.45362499889269,"oldword"
"928",928,107,112,"respected",4,544,1,"oldreal",1992,1.1299988971836,"no",6.30078579466324,"oldword"
"929",929,107,113,"mittens",4,793,1,"oldreal",1992,1.15341750153255,"no",6.67708346124714,"oldword"
"930",930,107,114,"permission",7,813,1,"youngreal",1992,1.17683610588151,"no",6.70196036600254,"oldword"
"931",931,107,117,"dye",4,619,1,"oldreal",1992,1.24709191892837,"no",6.42971947803914,"youngword"
"932",932,107,117,"expensive",7,850,1,"youngreal",1992,1.24709191892837,"no",6.74641212857337,"youngword"
"933",933,107,118,"fireworks",4,505,1,"oldreal",1992,1.27051052327733,"no",6.22653666928747,"oldword"
"934",934,107,118,"fireworks",4,505,1,"oldreal",1992,1.27051052327733,"no",6.22653666928747,"oldword"
"935",935,107,119,"libraries",4,653,1,"oldreal",1992,1.29392912762628,"no",6.4831073514572,"oldword"
"936",936,107,120,"hymns",4,569,1,"oldreal",1992,1.31734773197524,"no",6.3456363608286,"oldword"
"937",937,107,121,"hymns",7,989,1,"youngreal",1992,1.34076633632419,"no",6.89770494312864,"oldword"
"938",938,107,121,"bitten",4,537,1,"oldreal",1992,1.34076633632419,"no",6.28785856016178,"youngword"
"939",939,107,123,"environment",4,510,1,"oldreal",1992,1.3876035450221,"no",6.2363695902037,"youngword"
"940",940,107,125,"miners",4,699,1,"oldreal",1992,1.43444075372001,"no",6.5510803350434,"oldword"
"941",941,107,127,"fried",4,715,1,"oldreal",1992,1.48127796241792,"no",6.57368016696065,"oldword"
"942",942,107,128,"silent",4,612,1,"oldreal",1992,1.50469656676687,"no",6.41836493593621,"oldword"
"943",943,107,130,"electricity",4,468,1,"oldreal",1992,1.55153377546478,"no",6.15060276844628,"oldword"
"944",944,107,130,"fireworks",7,633,1,"youngreal",1992,1.55153377546478,"no",6.45204895443723,"oldword"
"945",945,107,132,"seventh",4,595,1,"oldreal",1992,1.59837098416269,"no",6.39024066706535,"youngword"
"946",946,107,132,"lifestyle",7,714,1,"youngreal",1992,1.59837098416269,"no",6.57228254269401,"youngword"
"947",947,107,136,"frighten",7,638,1,"youngreal",1992,1.69204540155851,"no",6.45990445437753,"oldword"
"948",948,107,141,"intellectual",7,737,1,"youngreal",1992,1.80913842330328,"no",6.60394382460047,"youngword"
"949",949,107,144,"idle",7,669,1,"youngreal",1992,1.87939423635015,"no",6.50727771238501,"oldword"
"950",950,107,145,"stress",7,489,1,"youngreal",1992,1.9028128406991,"no",6.19440539110467,"youngword"
"951",951,107,146,"reckon",4,767,1,"oldreal",1992,1.92623144504806,"no",6.64378973314767,"youngword"
"952",952,107,147,"seventh",7,653,1,"youngreal",1992,1.94965004939701,"no",6.4831073514572,"youngword"
"953",953,107,155,"impressive",7,626,1,"youngreal",1992,2.13699888418865,"no",6.44094654063292,"youngword"
"954",954,107,156,"pencils",7,560,1,"youngreal",1992,2.1604174885376,"no",6.3297209055227,"oldword"
"955",955,108,3,"frighten",2,904,1,"iso",1987,-1.42262897685245,"yes",6.80793494369993,"oldword"
"956",956,108,4,"dental",7,759,1,"youngreal",1987,-1.3992103725035,"yes",6.63331843328038,"oldword"
"957",957,108,5,"survival",4,623,1,"oldreal",1987,-1.37579176815454,"yes",6.43615036836943,"youngword"
"958",958,108,6,"seventh",4,580,0,"oldreal",1987,-1.35237316380559,"yes",6.36475075685191,"youngword"
"959",959,108,7,"fridge",2,775,1,"iso",1987,-1.32895455945663,"yes",6.65415252018322,"youngword"
"960",960,108,9,"respected",2,670,1,"iso",1987,-1.28211735075873,"yes",6.50876913697168,"oldword"
"961",961,108,10,"frighten",7,594,1,"youngreal",1987,-1.25869874640977,"yes",6.38856140554563,"oldword"
"962",962,108,12,"depressing",2,683,1,"iso",1987,-1.21186153771186,"yes",6.52795791762255,"youngword"
"963",963,108,14,"physics",2,673,1,"iso",1987,-1.16502432901395,"yes",6.51323011091231,"youngword"
"964",964,108,15,"libraries",2,686,1,"iso",1987,-1.141605724665,"yes",6.53233429222235,"oldword"
"965",965,108,15,"beg",4,743,1,"oldreal",1987,-1.141605724665,"yes",6.61204103483309,"oldword"
"966",966,108,16,"miners",2,649,1,"iso",1987,-1.11818712031604,"yes",6.47697236288968,"oldword"
"967",967,108,16,"miners",2,649,1,"iso",1987,-1.11818712031604,"yes",6.47697236288968,"oldword"
"968",968,108,18,"pencils",4,595,0,"oldreal",1987,-1.07134991161813,"yes",6.39024066706535,"oldword"
"969",969,108,18,"environment",2,542,1,"iso",1987,-1.07134991161813,"yes",6.29710931993394,"youngword"
"970",970,108,18,"intellectual",7,664,1,"youngreal",1987,-1.07134991161813,"yes",6.49978704065585,"youngword"
"971",971,108,19,"electricity",2,603,1,"iso",1987,-1.04793130726918,"yes",6.40357419793482,"oldword"
"972",972,108,19,"electricity",2,603,1,"iso",1987,-1.04793130726918,"yes",6.40357419793482,"oldword"
"973",973,108,19,"electricity",2,603,1,"iso",1987,-1.04793130726918,"yes",6.40357419793482,"oldword"
"974",974,108,20,"bitten",2,535,1,"iso",1987,-1.02451270292023,"yes",6.2841341610708,"youngword"
"975",975,108,22,"spirits",4,740,0,"oldreal",1987,-0.977675494222316,"yes",6.60800062529609,"youngword"
"976",976,108,23,"expensive",4,599,1,"oldreal",1987,-0.954256889873361,"yes",6.39692965521615,"youngword"
"977",977,108,24,"silent",4,517,1,"oldreal",1987,-0.930838285524407,"yes",6.24997524225948,"oldword"
"978",978,108,24,"delivered",7,568,1,"youngreal",1987,-0.930838285524407,"yes",6.34388043412633,"oldword"
"979",979,108,25,"video",2,625,1,"iso",1987,-0.907419681175452,"yes",6.4393503711001,"youngword"
"980",980,108,25,"video",2,625,1,"iso",1987,-0.907419681175452,"yes",6.4393503711001,"youngword"
"981",981,108,26,"lifestyle",2,623,1,"iso",1987,-0.884001076826497,"yes",6.43615036836943,"youngword"
