"","Stimulus","X","Subject","Trial","Block","ACC","RT","Sex","RTlog","cTrial","condition","WordGender"
"1","agent",24888,406,38,4,0,851,"male",6.74641212857337,-0.900928667933847,"female-real","male"
"2","agent",26687,409,56,2,1,662,"female",6.49526555593701,-0.57775660733263,"none","male"
"3","agent",4232,108,77,2,1,515,"female",6.24416690066374,-0.20072253663121,"none","male"
"4","agent",16267,303,77,4,1,642,"female",6.46458830368996,-0.20072253663121,"male-real","male"
"5","agent",20311,310,67,2,1,561,"female",6.3297209055227,-0.380262570298553,"none","male"
"6","agent",27073,410,7,2,1,677,"male",6.51767127291227,-1.45750277230261,"none","male"
"7","agent",17719,306,5,2,1,917,"male",6.82110747225646,-1.49341077903608,"none","male"
"8","agent",7757,201,98,7,1,664,"female",6.49828214947643,0.176311534070209,"male-real","male"
"9","agent",9096,203,182,4,1,559,"female",6.3261494731551,1.68444781687589,"female-real","male"
"10","agent",9895,205,55,4,1,889,"female",6.7900972355139,-0.595710610699364,"female-real","male"
"11","agent",18370,307,16,2,1,564,"male",6.33505425149806,-1.295916742002,"none","male"
"12","agent",14923,301,35,4,1,972,"female",6.87935580446044,-0.95479067803405,"male-real","male"
"13","agent",23461,403,143,4,1,600,"female",6.39692965521615,0.984241685573252,"female-real","male"
"14","agent",16266,303,77,4,1,642,"female",6.46458830368996,-0.20072253663121,"male-real","male"
"15","agent",7758,201,98,7,1,664,"female",6.49828214947643,0.176311534070209,"male-real","male"
"16","agent",5409,110,86,2,1,552,"male",6.31354804627709,-0.039136506330602,"none","male"
"17","agent",9705,204,199,7,1,680,"female",6.52209279817015,1.98966587411037,"male-real","male"
"18","agent",22941,402,167,4,1,558,"female",6.32435896238131,1.41513776637487,"female-real","male"
"19","agent",21400,312,35,2,1,458,"male",6.12686918411419,-0.95479067803405,"none","male"
"20","agent",20310,310,67,2,1,561,"female",6.3297209055227,-0.380262570298553,"none","male"
"21","agent",24889,406,38,4,0,851,"male",6.74641212857337,-0.900928667933847,"female-real","male"
"22","agent",509,101,159,4,1,565,"female",6.33682573114644,1.271505739441,"male-real","male"
"23","agent",15779,302,96,2,1,625,"female",6.4377516497364,0.140403527336741,"none","male"
"24","agent",12896,210,98,7,1,696,"male",6.54534966033442,0.176311534070209,"male-real","male"
"25","agent",27074,410,7,2,1,677,"male",6.51767127291227,-1.45750277230261,"none","male"
"26","agent",11038,207,46,2,1,511,"female",6.2363695902037,-0.757296640999973,"none","male"
"27","agent",10879,207,4,7,1,847,"female",6.74170069465205,-1.51136478240281,"male-real","male"
"28","agent",8285,202,85,4,1,593,"male",6.38519439899773,-0.0570905096973362,"female-real","male"
"29","agent",24887,406,38,4,0,851,"male",6.74641212857337,-0.900928667933847,"female-real","male"
"30","agent",26109,408,60,2,1,570,"female",6.3456363608286,-0.505940593865693,"none","male"
"31","agent",12233,209,69,2,1,648,"female",6.47389069635227,-0.344354563565085,"none","male"
"32","agent",4581,109,22,2,1,592,"female",6.38350663488401,-1.1881927218016,"none","male"
"33","agent",27264,410,52,7,1,673,"male",6.51174532964473,-0.649572620799567,"male-real","male"
"34","agent",5977,111,87,4,1,571,"female",6.34738920965601,-0.0211825029638677,"male-real","male"
"35","agent",13724,212,11,4,1,711,"male",6.56667242980324,-1.38568675883567,"female-real","male"
"36","agent",5974,111,86,2,1,643,"female",6.46614472423762,-0.039136506330602,"none","male"
"37","agent",24136,404,190,7,1,470,"female",6.1527326947041,1.82807984380976,"male-real","male"
"38","agent",15053,301,75,2,0,817,"female",6.70563909486,-0.236630543364679,"none","male"
"39","agent",17720,306,5,2,1,917,"male",6.82110747225646,-1.49341077903608,"none","male"
"40","agent",9704,204,199,7,1,680,"female",6.52209279817015,1.98966587411037,"male-real","male"
"41","agent",21401,312,35,2,1,458,"male",6.12686918411419,-0.95479067803405,"none","male"
"42","agent",14924,301,35,4,1,972,"female",6.87935580446044,-0.95479067803405,"male-real","male"
"43","agent",3906,107,187,4,1,614,"female",6.41999492814714,1.77421783370956,"male-real","male"
"44","agent",9897,205,55,4,1,889,"female",6.7900972355139,-0.595710610699364,"female-real","male"
"45","agent",2511,105,79,2,1,623,"female",6.43454651878745,-0.164814529897742,"none","male"
"46","agent",21950,401,23,7,1,1077,"female",6.98193467715639,-1.17023871843486,"male-real","male"
"47","agent",20907,311,68,7,1,583,"male",6.36818718635049,-0.362308566931819,"female-real","male"
"48","agent",27057,410,4,4,1,1020,"male",6.92755790627832,-1.51136478240281,"female-real","male"
"49","agent",27900,411,85,4,1,831,"male",6.72262979485545,-0.0570905096973362,"female-real","male"
"50","agent",12145,209,45,4,1,852,"female",6.74758652682932,-0.775250644366707,"female-real","male"
"51","agent",18723,307,125,7,1,879,"male",6.77878489768518,0.661069624972035,"female-real","male"
"52","agent",20485,310,116,4,1,644,"female",6.46769872610435,0.499483594671426,"male-real","male"
"53","agent",27653,411,10,2,1,505,"male",6.22455842927536,-1.40364076220241,"none","male"
"54","agent",26108,408,60,2,1,570,"female",6.3456363608286,-0.505940593865693,"none","male"
"55","agent",21402,312,35,2,1,458,"male",6.12686918411419,-0.95479067803405,"none","male"
"56","agent",5408,110,86,2,1,552,"male",6.31354804627709,-0.039136506330602,"none","male"
"57","agent",4549,109,9,7,1,709,"female",6.56385552653213,-1.42159476556914,"female-real","male"
"58","agent",8357,202,104,7,1,627,"male",6.44094654063292,0.284035554270615,"male-real","male"
"59","agent",8660,203,32,2,1,473,"female",6.15909538849193,-1.00865268813425,"none","male"
"60","agent",26965,409,162,7,1,892,"female",6.79346613258001,1.3253677495412,"male-real","male"
"61","agent",10847,206,189,4,1,608,"female",6.41017488196617,1.81012584044303,"female-real","male"
"62","agent",9432,204,79,2,1,442,"female",6.0913098820777,-0.164814529897742,"none","male"
"63","agent",16592,304,11,7,1,1107,"male",7.00940893270864,-1.38568675883567,"female-real","male"
"64","agent",16481,303,156,7,1,556,"female",6.32076829425058,1.2176437293408,"female-real","male"
"65","agent",18372,307,16,2,1,564,"male",6.33505425149806,-1.295916742002,"none","male"
"66","agent",18371,307,16,2,1,564,"male",6.33505425149806,-1.295916742002,"none","male"
"67","agent",25332,407,8,4,1,797,"female",6.68085467879022,-1.43954876893588,"female-real","male"
"68","agent",14107,212,127,7,1,733,"male",6.59714570188665,0.696977631705503,"male-real","male"
"69","agent",16729,304,52,2,1,726,"male",6.5875500148248,-0.649572620799567,"none","male"
"70","agent",5175,110,17,7,1,842,"male",6.73578001424233,-1.27796273863527,"female-real","male"
"71","agent",17407,305,74,2,1,589,"female",6.37842618365159,-0.254584546731413,"none","male"
"72","agent",1294,103,49,2,1,717,"female",6.57507584059962,-0.70343463089977,"none","male"
"73","agent",16593,304,11,7,1,1107,"male",7.00940893270864,-1.38568675883567,"female-real","male"
"74","agent",1610,103,164,7,1,937,"female",6.84268328223842,1.36127575627467,"female-real","male"
"75","agent",16591,304,11,7,1,1107,"male",7.00940893270864,-1.38568675883567,"female-real","male"
"76","agent",17404,305,73,4,1,667,"female",6.50279004591562,-0.272538550098148,"male-real","male"
"77","agent",17409,305,74,2,1,589,"female",6.37842618365159,-0.254584546731413,"none","male"
"78","agent",22440,402,3,2,1,478,"female",6.16961073249146,-1.52931878576955,"none","male"
"79","agent",20309,310,67,2,1,561,"female",6.3297209055227,-0.380262570298553,"none","male"
"80","agent",600,102,7,7,1,574,"male",6.35262939631957,-1.45750277230261,"female-real","male"
"81","agent",10878,207,4,7,1,847,"female",6.74170069465205,-1.51136478240281,"male-real","male"
"82","agent",10266,205,187,7,1,791,"female",6.67329796776765,1.77421783370956,"male-real","male"
"83","agent",27265,410,52,7,1,673,"male",6.51174532964473,-0.649572620799567,"male-real","male"
"84","agent",11512,208,17,2,1,779,"female",6.65801104587075,-1.27796273863527,"none","male"
"85","agent",23906,404,82,2,1,440,"female",6.08677472691231,-0.110952519797539,"none","male"
"86","agent",13149,211,16,4,1,771,"male",6.64768837356333,-1.295916742002,"female-real","male"
"87","agent",6470,112,59,4,1,631,"male",6.44730586254121,-0.523894597232427,"male-real","male"
"88","agent",19876,309,114,7,1,701,"female",6.55250788703459,0.463575587937958,"female-real","male"
"89","agent",5173,110,17,7,1,842,"male",6.73578001424233,-1.27796273863527,"female-real","male"
"90","agent",13148,211,16,4,1,771,"male",6.64768837356333,-1.295916742002,"female-real","male"
"91","agent",21990,401,38,2,1,717,"female",6.57507584059962,-0.900928667933847,"none","male"
"92","agent",7129,113,89,2,0,484,"male",6.18208490671663,0.0147255037696009,"none","male"
"93","agent",8333,202,97,2,1,686,"male",6.53087762772588,0.158357530703475,"none","male"
"94","agent",17208,305,22,7,1,601,"female",6.39859493453521,-1.1881927218016,"female-real","male"
"95","agent",2512,105,79,2,1,623,"female",6.43454651878745,-0.164814529897742,"none","male"
"96","agent",1293,103,49,2,1,717,"female",6.57507584059962,-0.70343463089977,"none","male"
"97","agent",15052,301,75,2,0,817,"female",6.70563909486,-0.236630543364679,"none","male"
"98","agent",24135,404,190,7,1,470,"female",6.1527326947041,1.82807984380976,"male-real","male"
"99","agent",21915,401,13,4,1,597,"female",6.3919171133926,-1.3497787521022,"female-real","male"
"100","agent",27058,410,4,4,1,1020,"male",6.92755790627832,-1.51136478240281,"female-real","male"
"101","agent",6469,112,59,4,1,631,"male",6.44730586254121,-0.523894597232427,"male-real","male"
"102","agent",7213,113,123,4,1,574,"male",6.35262939631957,0.625161618238566,"male-real","male"
"103","agent",7723,201,92,2,1,447,"female",6.10255859461357,0.0685875138698037,"none","male"
"104","agent",10394,206,39,2,1,576,"female",6.35610766069589,-0.882974664567113,"none","male"
"105","agent",12234,209,69,2,1,648,"female",6.47389069635227,-0.344354563565085,"none","male"
"106","agent",8284,202,85,4,1,593,"male",6.38519439899773,-0.0570905096973362,"female-real","male"
"107","agent",25497,407,58,7,1,1108,"female",7.01031186730723,-0.541848600599162,"male-real","male"
"108","agent",25498,407,58,7,1,1108,"female",7.01031186730723,-0.541848600599162,"male-real","male"
"109","agent",9896,205,55,4,1,889,"female",6.7900972355139,-0.595710610699364,"female-real","male"
"110","agent",28327,412,43,7,1,505,"male",6.22455842927536,-0.811158651100176,"male-real","male"
"111","agent",14108,212,127,7,1,733,"male",6.59714570188665,0.696977631705503,"male-real","male"
"112","agent",17405,305,73,4,1,667,"female",6.50279004591562,-0.272538550098148,"male-real","male"
"113","agent",7439,201,15,4,1,661,"female",6.49375383985169,-1.31387074536874,"female-real","male"
"114","agent",1868,104,47,2,1,580,"female",6.36302810354046,-0.739342637633239,"none","male"
"115","agent",508,101,159,4,1,565,"female",6.33682573114644,1.271505739441,"male-real","male"
"116","agent",24749,406,4,7,1,952,"male",6.85856503479136,-1.51136478240281,"male-real","male"
"117","agent",12097,209,27,7,1,995,"female",6.90274273715859,-1.09842270496792,"male-real","male"
"118","agent",24177,405,5,2,1,588,"female",6.37672694789863,-1.49341077903608,"none","male"
"119","agent",11799,208,97,4,1,418,"female",6.03548143252476,0.158357530703475,"female-real","male"
"120","agent",20486,310,116,4,1,644,"female",6.46769872610435,0.499483594671426,"male-real","male"
"121","agent",26966,409,162,7,1,892,"female",6.79346613258001,1.3253677495412,"male-real","male"
"122","agent",16482,303,156,7,1,556,"female",6.32076829425058,1.2176437293408,"female-real","male"
"123","agent",19346,308,148,7,1,636,"female",6.45519856334012,1.07401170240692,"female-real","male"
"124","agent",4524,108,194,4,1,888,"female",6.78897174299217,1.8998958572767,"male-real","male"
"125","agent",3616,107,72,2,1,531,"female",6.27476202124194,-0.290492553464882,"none","male"
"126","agent",23905,404,82,2,1,440,"female",6.08677472691231,-0.110952519797539,"none","male"
"127","agent",24567,405,111,7,1,673,"female",6.51174532964473,0.409713577837755,"male-real","male"
"128","agent",27787,411,52,7,1,696,"male",6.54534966033442,-0.649572620799567,"male-real","male"
"129","agent",13171,211,20,7,1,650,"male",6.47697236288968,-1.22410072853506,"male-real","male"
"130","agent",3361,106,194,4,1,644,"female",6.46769872610435,1.8998958572767,"male-real","male"
"131","agent",10395,206,39,2,1,576,"female",6.35610766069589,-0.882974664567113,"none","male"
"132","agent",16728,304,52,2,1,726,"male",6.5875500148248,-0.649572620799567,"none","male"
"133","agent",24750,406,4,7,1,952,"male",6.85856503479136,-1.51136478240281,"male-real","male"
"134","agent",1635,103,180,4,1,620,"female",6.42971947803914,1.64853981014242,"male-real","male"
"135","agent",28326,412,43,7,1,505,"male",6.22455842927536,-0.811158651100176,"male-real","male"
"136","agent",11510,208,17,2,1,779,"female",6.65801104587075,-1.27796273863527,"none","male"
"137","agent",4024,108,19,7,1,538,"female",6.28785856016178,-1.2420547319018,"female-real","male"
"138","agent",14356,213,37,2,1,502,"male",6.21860011969173,-0.918882671300581,"none","male"
"139","agent",5174,110,17,7,1,842,"male",6.73578001424233,-1.27796273863527,"female-real","male"
"140","agent",26173,408,75,4,1,675,"female",6.51471269087253,-0.236630543364679,"female-real","male"
"141","agent",3615,107,72,2,1,531,"female",6.27476202124194,-0.290492553464882,"none","male"
"142","agent",14618,213,106,7,1,661,"male",6.49375383985169,0.319943561004083,"male-real","male"
"143","agent",20531,310,145,7,1,580,"female",6.36302810354046,1.02014969230672,"female-real","male"
"144","agent",26686,409,56,2,1,662,"female",6.49526555593701,-0.57775660733263,"none","male"
"145","agent",27901,411,85,4,1,831,"male",6.72262979485545,-0.0570905096973362,"female-real","male"
"146","agent",27652,411,10,2,1,505,"male",6.22455842927536,-1.40364076220241,"none","male"
"147","agent",10393,206,39,2,1,576,"female",6.35610766069589,-0.882974664567113,"none","male"
"148","agent",12098,209,27,7,1,995,"female",6.90274273715859,-1.09842270496792,"male-real","male"
"149","agent",21949,401,23,7,1,1077,"female",6.98193467715639,-1.17023871843486,"male-real","male"
"150","agent",7440,201,15,4,1,661,"female",6.49375383985169,-1.31387074536874,"female-real","male"
"151","agent",8356,202,104,7,1,627,"male",6.44094654063292,0.284035554270615,"male-real","male"
"152","agent",11188,207,87,4,1,484,"female",6.18208490671663,-0.0211825029638677,"female-real","male"
"153","agent",24748,406,4,7,1,952,"male",6.85856503479136,-1.51136478240281,"male-real","male"
"154","agent",24178,405,5,2,1,588,"female",6.37672694789863,-1.49341077903608,"none","male"
"155","agent",2642,105,125,7,1,603,"female",6.40191719672719,0.661069624972035,"female-real","male"
"156","agent",19238,308,98,2,1,922,"female",6.82654522355659,0.176311534070209,"none","male"
"157","agent",7724,201,92,2,1,447,"female",6.10255859461357,0.0685875138698037,"none","male"
"158","agent",8659,203,32,2,1,473,"female",6.15909538849193,-1.00865268813425,"none","male"
"159","agent",9433,204,79,2,1,442,"female",6.0913098820777,-0.164814529897742,"none","male"
"160","agent",5978,111,87,4,1,571,"female",6.34738920965601,-0.0211825029638677,"male-real","male"
"161","agent",16268,303,77,4,1,642,"female",6.46458830368996,-0.20072253663121,"male-real","male"
"162","agent",28491,412,90,2,1,619,"male",6.4281052726846,0.0326795071363351,"none","male"
"163","agent",4231,108,77,2,1,515,"female",6.24416690066374,-0.20072253663121,"none","male"
"164","agent",14358,213,37,2,1,502,"male",6.21860011969173,-0.918882671300581,"none","male"
"165","agent",5611,110,171,4,1,581,"male",6.36475075685191,1.48695377984181,"male-real","male"
"166","agent",26174,408,75,4,1,675,"female",6.51471269087253,-0.236630543364679,"female-real","male"
"167","agent",13172,211,20,7,1,650,"male",6.47697236288968,-1.22410072853506,"male-real","male"
"168","agent",11190,207,87,4,1,484,"female",6.18208490671663,-0.0211825029638677,"female-real","male"
"169","agent",39,101,10,2,1,473,"female",6.15909538849193,-1.40364076220241,"none","male"
"170","agent",27654,411,10,2,1,505,"male",6.22455842927536,-1.40364076220241,"none","male"
"171","agent",19875,309,114,7,1,701,"female",6.55250788703459,0.463575587937958,"female-real","male"
"172","agent",17408,305,74,2,1,589,"female",6.37842618365159,-0.254584546731413,"none","male"
"173","agent",4580,109,22,2,1,592,"female",6.38350663488401,-1.1881927218016,"none","male"
"174","agent",14357,213,37,2,1,502,"male",6.21860011969173,-0.918882671300581,"none","male"
"175","agent",5612,110,171,4,1,581,"male",6.36475075685191,1.48695377984181,"male-real","male"
"176","agent",15991,302,188,7,1,705,"female",6.55819780281227,1.79217183707629,"female-real","male"
"177","agent",2938,106,40,2,1,632,"female",6.44888939414686,-0.865020661200379,"none","male"
"178","agent",18506,307,47,4,1,641,"male",6.46302945692067,-0.739342637633239,"male-real","male"
"179","agent",18724,307,125,7,1,879,"male",6.77878489768518,0.661069624972035,"female-real","male"
"180","agent",625,102,14,2,1,567,"male",6.34035930372775,-1.33182474873547,"none","male"
"181","agent",11511,208,17,2,1,779,"female",6.65801104587075,-1.27796273863527,"none","male"
"182","agent",11189,207,87,4,1,484,"female",6.18208490671663,-0.0211825029638677,"female-real","male"
"183","agent",23120,403,35,2,1,765,"female",6.63987583382654,-0.95479067803405,"none","male"
"184","agent",21569,312,82,4,1,577,"male",6.3578422665081,-0.110952519797539,"male-real","male"
"185","agent",8334,202,97,2,1,686,"male",6.53087762772588,0.158357530703475,"none","male"
"186","agent",11940,208,163,7,1,642,"female",6.46458830368996,1.34332175290794,"male-real","male"
"187","agent",26917,409,143,4,1,652,"female",6.48004456192665,0.984241685573252,"female-real","male"
"188","agent",15990,302,188,7,1,705,"female",6.55819780281227,1.79217183707629,"female-real","male"
"189","agent",22940,402,167,4,1,558,"female",6.32435896238131,1.41513776637487,"female-real","male"
"190","agent",22439,402,3,2,1,478,"female",6.16961073249146,-1.52931878576955,"none","male"
"191","agent",23907,404,82,2,1,440,"female",6.08677472691231,-0.110952519797539,"none","male"
"192","agent",4023,108,19,7,1,538,"female",6.28785856016178,-1.2420547319018,"female-real","male"
"193","agent",2937,106,40,2,1,632,"female",6.44888939414686,-0.865020661200379,"none","male"
"194","agent",19774,309,81,2,1,637,"female",6.45676965557216,-0.128906523164273,"none","male"
"195","agent",2643,105,125,7,1,603,"female",6.40191719672719,0.661069624972035,"female-real","male"
"196","agent",12799,210,71,2,1,620,"male",6.42971947803914,-0.308446556831616,"none","male"
"197","agent",12146,209,45,4,1,852,"female",6.74758652682932,-0.775250644366707,"female-real","male"
"198","agent",18505,307,47,4,1,641,"male",6.46302945692067,-0.739342637633239,"male-real","male"
"199","agent",17406,305,73,4,1,667,"female",6.50279004591562,-0.272538550098148,"male-real","male"
"200","agent",7128,113,89,2,0,484,"male",6.18208490671663,0.0147255037696009,"none","male"
"201","agent",1634,103,180,4,1,620,"female",6.42971947803914,1.64853981014242,"male-real","male"
"202","agent",4523,108,194,4,1,888,"female",6.78897174299217,1.8998958572767,"male-real","male"
"203","agent",465,101,135,7,1,691,"female",6.53813982376767,0.840609658639377,"female-real","male"
"204","agent",19347,308,148,7,1,636,"female",6.45519856334012,1.07401170240692,"female-real","male"
"205","agent",1855,104,44,4,1,712,"female",6.56807791141198,-0.793204647733441,"male-real","male"
"206","agent",2939,106,40,2,1,632,"female",6.44888939414686,-0.865020661200379,"none","male"
"207","agent",18102,306,109,7,1,737,"male",6.60258789218934,0.373805571104286,"female-real","male"
"208","agent",624,102,14,2,1,567,"male",6.34035930372775,-1.33182474873547,"none","male"
"209","agent",1869,104,47,2,1,580,"female",6.36302810354046,-0.739342637633239,"none","male"
"210","agent",12798,210,71,2,1,620,"male",6.42971947803914,-0.308446556831616,"none","male"
"211","agent",19239,308,98,2,1,922,"female",6.82654522355659,0.176311534070209,"none","male"
"212","agent",21206,311,181,4,1,684,"male",6.52795791762255,1.66649381350915,"male-real","male"
"213","agent",18504,307,47,4,1,641,"male",6.46302945692067,-0.739342637633239,"male-real","male"
"214","agent",6598,112,99,2,1,468,"male",6.14846829591765,0.194265537436944,"none","male"
"215","agent",21914,401,13,4,1,597,"female",6.3919171133926,-1.3497787521022,"female-real","male"
"216","agent",7201,113,117,7,1,647,"male",6.4723462945009,0.51743759803816,"female-real","male"
"217","agent",4230,108,77,2,1,515,"female",6.24416690066374,-0.20072253663121,"none","male"
"218","agent",3905,107,187,4,1,614,"female",6.41999492814714,1.77421783370956,"male-real","male"
"219","agent",19773,309,81,2,1,637,"female",6.45676965557216,-0.128906523164273,"none","male"
"220","agent",5105,109,190,4,1,872,"female",6.77078942390898,1.82807984380976,"male-real","male"
"221","agent",16129,303,39,2,1,716,"female",6.57368016696065,-0.882974664567113,"none","male"
"222","agent",2763,105,179,4,1,698,"female",6.54821910276237,1.63058580677569,"male-real","male"
"223","agent",1870,104,47,2,1,580,"female",6.36302810354046,-0.739342637633239,"none","male"
"224","agent",7212,113,123,4,1,574,"male",6.35262939631957,0.625161618238566,"male-real","male"
"225","agent",6597,112,99,2,1,468,"male",6.14846829591765,0.194265537436944,"none","male"
"226","agent",21568,312,82,4,1,577,"male",6.3578422665081,-0.110952519797539,"male-real","male"
"227","agent",1854,104,44,4,1,712,"female",6.56807791141198,-0.793204647733441,"male-real","male"
"228","agent",1946,104,74,7,1,704,"female",6.55677835615804,-0.254584546731413,"female-real","male"
"229","agent",16131,303,39,2,1,716,"female",6.57368016696065,-0.882974664567113,"none","male"
"230","agent",18103,306,109,7,1,737,"male",6.60258789218934,0.373805571104286,"female-real","male"
"231","agent",20873,311,58,2,1,626,"male",6.4393503711001,-0.541848600599162,"none","male"
"232","agent",9725,205,7,2,1,592,"female",6.38350663488401,-1.45750277230261,"none","male"
"233","agent",15718,302,75,4,1,607,"female",6.4085287910595,-0.236630543364679,"male-real","male"
"234","agent",24826,406,26,2,1,857,"male",6.75343791859778,-1.11637670833466,"none","male"
"235","agent",13173,211,20,7,1,650,"male",6.47697236288968,-1.22410072853506,"male-real","male"
"236","agent",14017,212,92,2,1,524,"male",6.26149168432104,0.0685875138698037,"none","male"
"237","agent",19480,309,9,4,1,581,"female",6.36475075685191,-1.42159476556914,"male-real","male"
"238","agent",25434,407,40,2,0,552,"female",6.31354804627709,-0.865020661200379,"none","male"
"239","agent",21570,312,82,4,1,577,"male",6.3578422665081,-0.110952519797539,"male-real","male"
"240","agent",8913,203,99,7,1,608,"female",6.41017488196617,0.194265537436944,"male-real","male"
"241","agent",14619,213,106,7,1,661,"male",6.49375383985169,0.319943561004083,"male-real","male"
"242","agent",23330,403,96,7,1,722,"female",6.58202513889283,0.140403527336741,"male-real","male"
"243","agent",15191,301,108,7,1,722,"female",6.58202513889283,0.355851567737552,"female-real","male"
"244","agent",612,102,11,4,1,611,"male",6.4150969591716,-1.38568675883567,"male-real","male"
"245","agent",19202,308,85,4,1,668,"female",6.50428817353665,-0.0570905096973362,"male-real","male"
"246","agent",6198,111,166,7,1,952,"female",6.85856503479136,1.39718376300814,"female-real","male"
"247","agent",18266,306,183,4,1,575,"male",6.35437004079735,1.70240182024262,"male-real","male"
"248","agent",20906,311,68,7,1,583,"male",6.36818718635049,-0.362308566931819,"female-real","male"
"249","agent",16130,303,39,2,1,716,"female",6.57368016696065,-0.882974664567113,"none","male"
"250","agent",9724,205,7,2,1,592,"female",6.38350663488401,-1.45750277230261,"none","male"
"251","agent",25920,408,17,7,1,554,"female",6.31716468674728,-1.27796273863527,"male-real","male"
"252","agent",40,101,10,2,1,473,"female",6.15909538849193,-1.40364076220241,"none","male"
"253","agent",25921,408,17,7,1,554,"female",6.31716468674728,-1.27796273863527,"male-real","male"
"254","agent",15717,302,75,4,1,607,"female",6.4085287910595,-0.236630543364679,"male-real","male"
"255","agent",23329,403,96,7,1,722,"female",6.58202513889283,0.140403527336741,"male-real","male"
"256","agent",19479,309,9,4,1,581,"female",6.36475075685191,-1.42159476556914,"male-real","male"
"257","agent",13207,211,31,2,1,839,"male",6.73221070646721,-1.02660669150099,"none","male"
"258","agent",3370,106,200,7,0,562,"female",6.33150184989369,2.00761987747711,"female-real","male"
"259","agent",15719,302,75,4,1,607,"female",6.4085287910595,-0.236630543364679,"male-real","male"
"260","agent",9481,204,99,4,1,571,"female",6.34738920965601,0.194265537436944,"female-real","male"
"261","agent",613,102,11,4,1,611,"male",6.4150969591716,-1.38568675883567,"male-real","male"
"262","agent",22958,402,172,7,1,567,"female",6.34035930372775,1.50490778320855,"male-real","male"
"263","agent",9482,204,99,4,1,571,"female",6.34738920965601,0.194265537436944,"female-real","male"
"264","agent",41,101,10,2,1,473,"female",6.15909538849193,-1.40364076220241,"none","male"
"265","agent",23933,404,89,4,1,628,"female",6.4425401664682,0.0147255037696009,"female-real","male"
"266","agent",15190,301,108,7,1,722,"female",6.58202513889283,0.355851567737552,"female-real","male"
"267","agent",24579,405,123,4,1,599,"female",6.39526159811545,0.625161618238566,"female-real","male"
"268","agent",23331,403,96,7,1,722,"female",6.58202513889283,0.140403527336741,"male-real","male"
"269","agent",14016,212,92,2,1,524,"male",6.26149168432104,0.0685875138698037,"none","male"
"270","agent",6199,111,166,7,1,952,"female",6.85856503479136,1.39718376300814,"female-real","male"
"271","agent",22959,402,172,7,1,567,"female",6.34035930372775,1.50490778320855,"male-real","male"
"272","agent",5106,109,190,4,1,872,"female",6.77078942390898,1.82807984380976,"male-real","male"
"273","agent",18267,306,183,4,1,575,"male",6.35437004079735,1.70240182024262,"male-real","male"
"274","agent",21746,312,143,7,1,762,"male",6.63594655568665,0.984241685573252,"female-real","male"
"275","agent",21745,312,143,7,1,762,"male",6.63594655568665,0.984241685573252,"female-real","male"
"2700","apprenticeship",15172,301,97,7,1,791,"female",6.67329796776765,0.158357530703475,"female-real","male"
"2701","apprenticeship",2899,106,32,2,1,611,"female",6.4150969591716,-1.00865268813425,"none","male"
"2702","apprenticeship",5086,109,179,7,1,546,"female",6.30261897574491,1.63058580677569,"female-real","male"
"2703","apprenticeship",17994,306,74,2,1,661,"male",6.49375383985169,-0.254584546731413,"none","male"
"2704","apprenticeship",717,102,36,7,1,803,"male",6.68835471394676,-0.936836674667316,"female-real","male"
"2705","apprenticeship",25130,406,110,7,1,854,"male",6.74993119378857,0.391759574471021,"male-real","male"
"2706","apprenticeship",23793,404,55,2,1,779,"female",6.65801104587075,-0.595710610699364,"none","male"
"2707","apprenticeship",12987,210,138,7,1,997,"male",6.90475076996184,0.89447166873958,"male-real","male"
"2708","apprenticeship",15173,301,97,7,1,791,"female",6.67329796776765,0.158357530703475,"female-real","male"
"2709","apprenticeship",12264,209,77,2,1,1148,"female",7.04577657687951,-0.20072253663121,"none","male"
"2710","apprenticeship",3506,107,40,7,1,577,"female",6.3578422665081,-0.865020661200379,"female-real","male"
"2711","apprenticeship",12543,209,189,4,1,1187,"female",7.07918439460967,1.81012584044303,"female-real","male"
"2712","apprenticeship",2898,106,32,2,1,611,"female",6.4150969591716,-1.00865268813425,"none","male"
"2713","apprenticeship",1595,103,159,7,1,863,"female",6.76041469108343,1.271505739441,"female-real","male"
"2714","apprenticeship",23301,403,90,2,1,671,"female",6.50876913697168,0.0326795071363351,"none","male"
"2715","apprenticeship",716,102,36,7,1,803,"male",6.68835471394676,-0.936836674667316,"female-real","male"
"2716","apprenticeship",12263,209,77,2,1,1148,"female",7.04577657687951,-0.20072253663121,"none","male"
"2717","apprenticeship",23302,403,90,2,1,671,"female",6.50876913697168,0.0326795071363351,"none","male"
"2718","apprenticeship",13110,211,5,4,1,897,"male",6.7990558620588,-1.49341077903608,"female-real","male"
"2719","apprenticeship",15171,301,97,7,1,791,"female",6.67329796776765,0.158357530703475,"female-real","male"
"2720","apprenticeship",25010,406,78,4,1,753,"male",6.62406522779989,-0.182768533264476,"female-real","male"
"2721","apprenticeship",8397,202,124,4,1,578,"male",6.35957386867238,0.6431156216053,"female-real","male"
"2722","apprenticeship",14443,213,56,2,1,763,"male",6.63725803128446,-0.57775660733263,"none","male"
"2723","apprenticeship",17996,306,74,2,1,661,"male",6.49375383985169,-0.254584546731413,"none","male"
"2724","apprenticeship",14233,212,184,7,1,681,"male",6.52356230614951,1.72035582360936,"male-real","male"
"2725","apprenticeship",28169,411,188,4,1,936,"male",6.84161547647759,1.79217183707629,"female-real","male"
"2726","apprenticeship",12248,209,72,7,1,1586,"female",7.36897040219479,-0.290492553464882,"male-real","male"
"2727","apprenticeship",12988,210,138,7,1,997,"male",6.90475076996184,0.89447166873958,"male-real","male"
"2728","apprenticeship",3507,107,40,7,1,577,"female",6.3578422665081,-0.865020661200379,"female-real","male"
"2729","apprenticeship",15607,302,52,7,1,674,"female",6.51323011091231,-0.649572620799567,"female-real","male"
"2730","apprenticeship",24192,405,9,4,1,615,"female",6.42162226780652,-1.42159476556914,"female-real","male"
"2731","apprenticeship",3505,107,40,7,1,577,"female",6.3578422665081,-0.865020661200379,"female-real","male"
"2732","apprenticeship",24279,405,31,2,1,605,"female",6.40522845803084,-1.02660669150099,"none","male"
"2733","apprenticeship",16987,304,126,7,1,744,"male",6.61204103483309,0.679023628338769,"female-real","male"
"2734","apprenticeship",24278,405,31,2,1,605,"female",6.40522845803084,-1.02660669150099,"none","male"
"2735","apprenticeship",1990,104,90,2,1,536,"female",6.2841341610708,0.0326795071363351,"none","male"
"2736","apprenticeship",1989,104,90,2,1,536,"female",6.2841341610708,0.0326795071363351,"none","male"
"2737","apprenticeship",13629,211,170,7,1,624,"male",6.43615036836943,1.46899977647508,"male-real","male"
"2738","apprenticeship",25129,406,110,7,1,854,"male",6.74993119378857,0.391759574471021,"male-real","male"
"2739","apprenticeship",715,102,36,7,1,803,"male",6.68835471394676,-0.936836674667316,"female-real","male"
"2740","apprenticeship",2900,106,32,2,1,611,"female",6.4150969591716,-1.00865268813425,"none","male"
"2741","apprenticeship",17995,306,74,2,1,661,"male",6.49375383985169,-0.254584546731413,"none","male"
"2742","apprenticeship",11521,208,19,2,1,602,"female",6.40025744530882,-1.2420547319018,"none","male"
"2743","apprenticeship",11520,208,19,2,1,602,"female",6.40025744530882,-1.2420547319018,"none","male"
"2744","apprenticeship",19167,308,76,4,1,607,"female",6.4085287910595,-0.218676539997945,"male-real","male"
"2745","apprenticeship",13414,211,88,2,1,958,"male",6.86484777797086,-0.00322849959713342,"none","male"
"2746","apprenticeship",26867,409,111,7,1,523,"female",6.25958146406492,0.409713577837755,"male-real","male"
"2747","apprenticeship",3860,107,162,4,1,641,"female",6.46302945692067,1.3253677495412,"male-real","male"
"2748","apprenticeship",25618,407,92,7,0,745,"female",6.61338421837956,0.0685875138698037,"male-real","male"
"2749","apprenticeship",1083,102,163,4,1,684,"male",6.52795791762255,1.34332175290794,"male-real","male"
"2750","apprenticeship",19168,308,76,4,1,607,"female",6.4085287910595,-0.218676539997945,"male-real","male"
"2751","apprenticeship",13963,212,78,2,1,652,"male",6.48004456192665,-0.182768533264476,"none","male"
"2752","apprenticeship",17728,306,8,4,1,637,"male",6.45676965557216,-1.43954876893588,"male-real","male"
"2753","apprenticeship",14444,213,56,2,1,763,"male",6.63725803128446,-0.57775660733263,"none","male"
"2754","apprenticeship",8202,202,68,7,1,523,"male",6.25958146406492,-0.362308566931819,"male-real","male"
"2755","apprenticeship",4302,108,93,7,1,646,"female",6.4707995037826,0.0865415172365379,"female-real","male"
"2756","apprenticeship",16945,304,104,4,1,567,"male",6.34035930372775,0.284035554270615,"male-real","male"
"2757","apprenticeship",13416,211,88,2,1,958,"male",6.86484777797086,-0.00322849959713342,"none","male"
"2758","apprenticeship",26495,409,10,2,1,608,"female",6.41017488196617,-1.40364076220241,"none","male"
"2759","apprenticeship",16200,303,57,7,1,878,"female",6.77764659363512,-0.559802603965896,"female-real","male"
"2760","apprenticeship",23010,402,193,7,1,664,"female",6.49828214947643,1.88194185390997,"male-real","male"
"2761","apprenticeship",13415,211,88,2,1,958,"male",6.86484777797086,-0.00322849959713342,"none","male"
"2762","apprenticeship",27423,410,99,7,0,1038,"male",6.94505106372583,0.194265537436944,"male-real","male"
"2763","apprenticeship",106,101,29,4,1,691,"female",6.53813982376767,-1.06251469823446,"male-real","male"
"2764","apprenticeship",3269,106,152,7,1,519,"female",6.25190388316589,1.14582771587386,"female-real","male"
"2765","apprenticeship",14445,213,56,2,1,763,"male",6.63725803128446,-0.57775660733263,"none","male"
"2766","apprenticeship",16986,304,126,7,1,744,"male",6.61204103483309,0.679023628338769,"female-real","male"
"2767","apprenticeship",4691,109,49,2,1,644,"female",6.46769872610435,-0.70343463089977,"none","male"
"2768","apprenticeship",26423,408,179,4,1,759,"female",6.63200177739563,1.63058580677569,"female-real","male"
"2769","apprenticeship",6980,113,48,2,1,648,"male",6.47389069635227,-0.721388634266504,"none","male"
"2770","apprenticeship",4304,108,93,7,1,646,"female",6.4707995037826,0.0865415172365379,"female-real","male"
"2771","apprenticeship",15605,302,52,7,1,674,"female",6.51323011091231,-0.649572620799567,"female-real","male"
"2772","apprenticeship",21195,311,177,7,1,727,"male",6.58892647753352,1.59467780004222,"female-real","male"
"2773","apprenticeship",288,101,74,2,1,544,"female",6.29894924685594,-0.254584546731413,"none","male"
"2774","apprenticeship",3268,106,152,7,1,519,"female",6.25190388316589,1.14582771587386,"female-real","male"
"2775","apprenticeship",24446,405,74,7,1,512,"female",6.23832462503951,-0.254584546731413,"male-real","male"
"2776","apprenticeship",7685,201,82,2,1,580,"female",6.36302810354046,-0.110952519797539,"none","male"
"2777","apprenticeship",5155,110,12,2,1,642,"male",6.46458830368996,-1.36773275546894,"none","male"
"2778","apprenticeship",1082,102,163,4,1,684,"male",6.52795791762255,1.34332175290794,"male-real","male"
"2779","apprenticeship",18456,307,36,4,0,532,"male",6.27664348934164,-0.936836674667316,"male-real","male"
"2780","apprenticeship",5831,111,48,2,1,793,"female",6.67582322163485,-0.721388634266504,"none","male"
"2781","apprenticeship",28418,412,66,7,1,918,"male",6.82219739062049,-0.398216573665287,"male-real","male"
"2782","apprenticeship",18457,307,36,4,0,532,"male",6.27664348934164,-0.936836674667316,"male-real","male"
"2783","apprenticeship",8203,202,68,7,1,523,"male",6.25958146406492,-0.362308566931819,"male-real","male"
"2784","apprenticeship",17709,305,199,7,1,801,"female",6.68586094706836,1.98966587411037,"female-real","male"
"2785","apprenticeship",23247,403,70,4,1,582,"female",6.36647044773144,-0.32640056019835,"female-real","male"
"2786","apprenticeship",6926,113,30,4,1,706,"male",6.55961523749324,-1.04456069486772,"male-real","male"
"2787","apprenticeship",15606,302,52,7,1,674,"female",6.51323011091231,-0.649572620799567,"female-real","male"
"2788","apprenticeship",28513,412,93,2,1,866,"male",6.76388490856244,0.0865415172365379,"none","male"
"2789","apprenticeship",4303,108,93,7,1,646,"female",6.4707995037826,0.0865415172365379,"female-real","male"
"2790","apprenticeship",22318,401,151,4,1,832,"female",6.72383244082121,1.12787371250713,"female-real","male"
"2791","apprenticeship",27358,410,83,4,1,912,"male",6.81563999007433,-0.0929985164308048,"female-real","male"
"2792","apprenticeship",107,101,29,4,1,691,"female",6.53813982376767,-1.06251469823446,"male-real","male"
"2793","apprenticeship",6224,111,181,4,1,677,"female",6.51767127291227,1.66649381350915,"male-real","male"
"2794","apprenticeship",8945,203,116,7,1,779,"female",6.65801104587075,0.499483594671426,"male-real","male"
"2795","apprenticeship",7727,201,93,7,1,526,"female",6.26530121273771,0.0865415172365379,"male-real","male"
"2796","apprenticeship",24842,406,28,2,1,684,"male",6.52795791762255,-1.08046870160119,"none","male"
"2797","apprenticeship",13011,210,148,4,1,762,"male",6.63594655568665,1.07401170240692,"female-real","male"
"2798","apprenticeship",4309,108,94,4,1,690,"female",6.5366915975913,0.104495520603272,"male-real","male"
"2799","apprenticeship",17626,305,162,4,1,726,"female",6.5875500148248,1.3253677495412,"male-real","male"
"2800","apprenticeship",3859,107,162,4,1,641,"female",6.46302945692067,1.3253677495412,"male-real","male"
"2801","apprenticeship",11923,208,156,7,1,722,"female",6.58202513889283,1.2176437293408,"male-real","male"
"2802","apprenticeship",2010,104,96,7,1,504,"female",6.22257626807137,0.140403527336741,"female-real","male"
"2803","apprenticeship",19768,309,79,2,1,682,"female",6.52502965784346,-0.164814529897742,"none","male"
"2804","apprenticeship",21465,312,54,4,1,554,"male",6.31716468674728,-0.613664614066099,"male-real","male"
"2805","apprenticeship",26148,408,66,7,1,626,"female",6.4393503711001,-0.398216573665287,"male-real","male"
"2806","apprenticeship",23429,403,131,7,0,721,"female",6.58063913728495,0.76879364517244,"male-real","male"
"2807","apprenticeship",108,101,29,4,1,691,"female",6.53813982376767,-1.06251469823446,"male-real","male"
"2808","apprenticeship",2626,105,116,7,1,742,"female",6.60934924316738,0.499483594671426,"female-real","male"
"2809","apprenticeship",4244,108,81,2,1,665,"female",6.49978704065585,-0.128906523164273,"none","male"
"2810","apprenticeship",5832,111,48,2,1,793,"female",6.67582322163485,-0.721388634266504,"none","male"
"2811","apprenticeship",23430,403,131,7,0,721,"female",6.58063913728495,0.76879364517244,"male-real","male"
"2812","apprenticeship",7687,201,82,2,1,580,"female",6.36302810354046,-0.110952519797539,"none","male"
"2813","apprenticeship",4310,108,94,4,1,690,"female",6.5366915975913,0.104495520603272,"male-real","male"
"2814","apprenticeship",21196,311,177,7,1,727,"male",6.58892647753352,1.59467780004222,"female-real","male"
"2815","apprenticeship",23989,404,114,4,1,461,"female",6.13339804299665,0.463575587937958,"female-real","male"
"2816","apprenticeship",28514,412,93,2,1,866,"male",6.76388490856244,0.0865415172365379,"none","male"
"2817","apprenticeship",27422,410,99,7,0,1038,"male",6.94505106372583,0.194265537436944,"male-real","male"
"2818","apprenticeship",20294,310,63,2,1,521,"female",6.25575004175337,-0.45207858376549,"none","male"
"2819","apprenticeship",9280,204,38,4,1,621,"female",6.43133108193348,-0.900928667933847,"female-real","male"
"2820","apprenticeship",2458,105,65,2,1,746,"female",6.61472560020376,-0.416170577032022,"none","male"
"2821","apprenticeship",5497,110,111,7,1,951,"male",6.85751406254539,0.409713577837755,"female-real","male"
"2822","apprenticeship",26717,409,70,4,1,687,"female",6.53233429222235,-0.32640056019835,"female-real","male"
"2823","apprenticeship",19737,309,72,4,1,629,"female",6.44413125670044,-0.290492553464882,"male-real","male"
"2824","apprenticeship",24841,406,28,2,1,684,"male",6.52795791762255,-1.08046870160119,"none","male"
"2825","apprenticeship",26496,409,10,2,1,608,"female",6.41017488196617,-1.40364076220241,"none","male"
"2826","apprenticeship",21464,312,54,4,1,554,"male",6.31716468674728,-0.613664614066099,"male-real","male"
"2827","apprenticeship",26719,409,70,4,1,687,"female",6.53233429222235,-0.32640056019835,"female-real","male"
"2828","apprenticeship",19767,309,79,2,1,682,"female",6.52502965784346,-0.164814529897742,"none","male"
"2829","apprenticeship",25350,407,16,2,1,612,"female",6.41673228251233,-1.295916742002,"none","male"
"2830","apprenticeship",14826,301,2,2,1,760,"female",6.63331843328038,-1.54727278913628,"none","male"
"2831","apprenticeship",3522,107,46,2,1,657,"female",6.48768401848461,-0.757296640999973,"none","male"
"2832","apprenticeship",21108,311,133,4,1,633,"male",6.45047042214418,0.804701651905909,"male-real","male"
"2833","apprenticeship",21896,401,9,2,1,1089,"female",6.99301512293296,-1.42159476556914,"none","male"
"2834","apprenticeship",8201,202,68,7,1,523,"male",6.25958146406492,-0.362308566931819,"male-real","male"
"2835","apprenticeship",8946,203,116,7,1,779,"female",6.65801104587075,0.499483594671426,"male-real","male"
"2836","apprenticeship",4935,109,108,4,1,719,"female",6.57786135772105,0.355851567737552,"male-real","male"
"2837","apprenticeship",13111,211,5,4,1,897,"male",6.7990558620588,-1.49341077903608,"female-real","male"
"2838","apprenticeship",13109,211,5,4,1,897,"male",6.7990558620588,-1.49341077903608,"female-real","male"
"2839","apprenticeship",22304,401,147,7,1,530,"female",6.27287700654617,1.05605769904019,"male-real","male"
"2840","apprenticeship",10148,205,124,7,1,601,"female",6.39859493453521,0.6431156216053,"male-real","male"
"2841","apprenticeship",15769,302,91,2,1,519,"female",6.25190388316589,0.0506335105030694,"none","male"
"2842","apprenticeship",6981,113,48,2,1,648,"male",6.47389069635227,-0.721388634266504,"none","male"
"2843","apprenticeship",27663,411,12,2,1,734,"male",6.59850902861452,-1.36773275546894,"none","male"
"2844","apprenticeship",5925,111,74,7,1,1072,"female",6.97728134163075,-0.254584546731413,"female-real","male"
"2845","apprenticeship",1227,103,29,2,1,685,"female",6.52941883826223,-1.06251469823446,"none","male"
"2846","apprenticeship",20293,310,63,4,1,714,"female",6.57088296233958,-0.45207858376549,"male-real","male"
"2847","apprenticeship",9281,204,38,4,1,621,"female",6.43133108193348,-0.900928667933847,"female-real","male"
"2848","apprenticeship",25617,407,92,7,0,745,"female",6.61338421837956,0.0685875138698037,"male-real","male"
"2849","apprenticeship",10761,206,152,4,1,753,"female",6.62406522779989,1.14582771587386,"female-real","male"
"2850","apprenticeship",23300,403,90,2,1,671,"female",6.50876913697168,0.0326795071363351,"none","male"
"2851","apprenticeship",24843,406,28,2,1,684,"male",6.52795791762255,-1.08046870160119,"none","male"
"2852","apprenticeship",6750,112,174,4,1,915,"male",6.81892406527552,1.54081578994201,"male-real","male"
"2853","apprenticeship",18387,307,18,7,1,791,"male",6.67329796776765,-1.26000873526853,"female-real","male"
"2854","apprenticeship",26147,408,66,7,1,626,"female",6.4393503711001,-0.398216573665287,"male-real","male"
"2855","apprenticeship",20984,311,86,2,1,592,"male",6.38350663488401,-0.039136506330602,"none","male"
"2856","apprenticeship",5498,110,111,7,1,951,"male",6.85751406254539,0.409713577837755,"female-real","male"
"2857","apprenticeship",19204,308,85,7,1,773,"female",6.65027904858742,-0.0570905096973362,"female-real","male"
"2858","apprenticeship",14895,301,27,4,1,672,"female",6.51025834052315,-1.09842270496792,"male-real","male"
"2859","apprenticeship",18107,306,110,7,1,643,"male",6.46614472423762,0.391759574471021,"female-real","male"
"2860","apprenticeship",13694,212,2,4,1,866,"male",6.76388490856244,-1.54727278913628,"female-real","male"
"2861","apprenticeship",11853,208,129,4,1,986,"female",6.89365635460264,0.732885638438972,"female-real","male"
"2862","apprenticeship",26146,408,66,7,1,626,"female",6.4393503711001,-0.398216573665287,"male-real","male"
"2863","apprenticeship",22303,401,147,7,1,530,"female",6.27287700654617,1.05605769904019,"male-real","male"
"2864","apprenticeship",16946,304,104,4,1,567,"male",6.34035930372775,0.284035554270615,"male-real","male"
"2865","apprenticeship",19143,308,68,2,0,811,"female",6.69826805411541,-0.362308566931819,"none","male"
"2866","apprenticeship",21417,312,41,2,1,596,"male",6.39024066706535,-0.847066657833644,"none","male"
"2867","apprenticeship",16347,303,99,2,1,688,"female",6.53378883793334,0.194265537436944,"none","male"
"2868","apprenticeship",18388,307,18,7,1,791,"male",6.67329796776765,-1.26000873526853,"female-real","male"
"2869","apprenticeship",11362,207,162,4,1,461,"female",6.13339804299665,1.3253677495412,"female-real","male"
"2870","apprenticeship",19952,309,156,7,1,697,"female",6.54678541076052,1.2176437293408,"female-real","male"
"2871","apprenticeship",5924,111,74,7,1,1072,"female",6.97728134163075,-0.254584546731413,"female-real","male"
"2872","apprenticeship",27662,411,12,2,1,734,"male",6.59850902861452,-1.36773275546894,"none","male"
"2873","apprenticeship",23011,402,193,7,1,664,"female",6.49828214947643,1.88194185390997,"male-real","male"
"2874","apprenticeship",7686,201,82,2,1,580,"female",6.36302810354046,-0.110952519797539,"none","male"
"2875","apprenticeship",10149,205,124,7,1,601,"female",6.39859493453521,0.6431156216053,"male-real","male"
"2876","apprenticeship",27359,410,83,4,1,912,"male",6.81563999007433,-0.0929985164308048,"female-real","male"
"2877","apprenticeship",19953,309,156,7,1,697,"female",6.54678541076052,1.2176437293408,"female-real","male"
"2878","apprenticeship",16199,303,57,7,1,878,"female",6.77764659363512,-0.559802603965896,"female-real","male"
"2879","apprenticeship",14893,301,27,4,1,672,"female",6.51025834052315,-1.09842270496792,"male-real","male"
"2880","apprenticeship",7492,201,29,4,1,892,"female",6.79346613258001,-1.06251469823446,"female-real","male"
"2881","apprenticeship",8903,203,95,2,0,503,"female",6.22059017009974,0.122449523970006,"none","male"
"2882","apprenticeship",23246,403,70,4,1,582,"female",6.36647044773144,-0.32640056019835,"female-real","male"
"2883","apprenticeship",11924,208,156,7,1,722,"female",6.58202513889283,1.2176437293408,"male-real","male"
"2884","apprenticeship",21109,311,133,4,1,633,"male",6.45047042214418,0.804701651905909,"male-real","male"
"2885","apprenticeship",9226,204,24,2,1,526,"female",6.26530121273771,-1.15228471506813,"none","male"
"2886","apprenticeship",14894,301,27,4,1,672,"female",6.51025834052315,-1.09842270496792,"male-real","male"
"2887","apprenticeship",22768,402,91,4,1,637,"female",6.45676965557216,0.0506335105030694,"female-real","male"
"2888","apprenticeship",18106,306,110,7,1,643,"male",6.46614472423762,0.391759574471021,"female-real","male"
"2889","apprenticeship",1893,104,55,4,1,604,"female",6.40357419793482,-0.595710610699364,"male-real","male"
"2890","apprenticeship",6749,112,174,4,1,915,"male",6.81892406527552,1.54081578994201,"male-real","male"
"2891","apprenticeship",4690,109,49,2,1,644,"female",6.46769872610435,-0.70343463089977,"none","male"
"2892","apprenticeship",20562,310,158,7,1,544,"female",6.29894924685594,1.25355173607427,"female-real","male"
"2893","apprenticeship",9998,205,83,4,1,603,"female",6.40191719672719,-0.0929985164308048,"female-real","male"
"2894","apprenticeship",26029,408,37,2,1,631,"female",6.44730586254121,-0.918882671300581,"none","male"
"2895","apprenticeship",26718,409,70,4,1,687,"female",6.53233429222235,-0.32640056019835,"female-real","male"
"2896","apprenticeship",7728,201,93,7,1,526,"female",6.26530121273771,0.0865415172365379,"male-real","male"
"2897","apprenticeship",8685,203,39,4,1,600,"female",6.39692965521615,-0.882974664567113,"female-real","male"
"2898","apprenticeship",27953,411,97,7,1,755,"male",6.62671774924902,0.158357530703475,"male-real","male"
"2899","apprenticeship",10982,207,29,7,1,555,"female",6.31896811374643,-1.06251469823446,"male-real","male"
"2900","apprenticeship",21897,401,9,2,1,1089,"female",6.99301512293296,-1.42159476556914,"none","male"
"2901","apprenticeship",16038,303,9,4,1,905,"female",6.80793494369993,-1.42159476556914,"male-real","male"
"2902","apprenticeship",5545,110,130,4,1,641,"male",6.46302945692067,0.750839641805706,"male-real","male"
"2903","apprenticeship",7491,201,29,4,1,892,"female",6.79346613258001,-1.06251469823446,"female-real","male"
"2904","apprenticeship",26028,408,37,2,1,631,"female",6.44730586254121,-0.918882671300581,"none","male"
"2905","apprenticeship",283,101,72,7,1,822,"female",6.71174039505618,-0.290492553464882,"female-real","male"
"2906","apprenticeship",26030,408,37,2,1,631,"female",6.44730586254121,-0.918882671300581,"none","male"
"2907","apprenticeship",26494,409,10,2,1,608,"female",6.41017488196617,-1.40364076220241,"none","male"
"2908","apprenticeship",8100,202,42,2,1,646,"male",6.4707995037826,-0.82911265446691,"none","male"
"2909","apprenticeship",9922,205,65,2,1,577,"female",6.3578422665081,-0.416170577032022,"none","male"
"2910","apprenticeship",1584,103,151,4,1,710,"female",6.56526497003536,1.12787371250713,"male-real","male"
"2911","apprenticeship",3523,107,46,2,1,657,"female",6.48768401848461,-0.757296640999973,"none","male"
"2912","apprenticeship",6934,113,34,7,1,644,"male",6.46769872610435,-0.972744681400784,"female-real","male"
"2913","apprenticeship",9227,204,24,2,1,526,"female",6.26530121273771,-1.15228471506813,"none","male"
"2914","apprenticeship",25671,407,107,4,0,508,"female",6.23048144757848,0.337897564370818,"female-real","male"
"2915","apprenticeship",20563,310,158,7,1,544,"female",6.29894924685594,1.25355173607427,"female-real","male"
"2916","apprenticeship",12876,210,93,2,1,691,"male",6.53813982376767,0.0865415172365379,"none","male"
"2917","apprenticeship",20983,311,86,2,1,592,"male",6.38350663488401,-0.039136506330602,"none","male"
"2918","apprenticeship",694,102,31,2,1,632,"male",6.44888939414686,-1.02660669150099,"none","male"
"2919","apprenticeship",693,102,31,2,1,632,"male",6.44888939414686,-1.02660669150099,"none","male"
"2920","apprenticeship",16040,303,9,4,1,905,"female",6.80793494369993,-1.42159476556914,"male-real","male"
"2921","apprenticeship",15425,302,6,4,1,952,"female",6.85856503479136,-1.47545677566934,"male-real","male"
"2922","apprenticeship",13964,212,78,2,1,652,"male",6.48004456192665,-0.182768533264476,"none","male"
"2923","apprenticeship",1226,103,29,2,1,685,"female",6.52941883826223,-1.06251469823446,"none","male"
"2924","apprenticeship",10981,207,29,7,1,555,"female",6.31896811374643,-1.06251469823446,"male-real","male"
"2925","apprenticeship",20982,311,86,2,1,592,"male",6.38350663488401,-0.039136506330602,"none","male"
"2926","apprenticeship",17625,305,162,4,1,726,"female",6.5875500148248,1.3253677495412,"male-real","male"
"2927","apprenticeship",27952,411,97,7,1,755,"male",6.62671774924902,0.158357530703475,"male-real","male"
"2928","apprenticeship",6473,112,60,2,1,675,"male",6.51471269087253,-0.505940593865693,"none","male"
"2929","apprenticeship",16039,303,9,4,1,905,"female",6.80793494369993,-1.42159476556914,"male-real","male"
"2930","apprenticeship",15427,302,6,4,1,952,"female",6.85856503479136,-1.47545677566934,"male-real","male"
"2931","apprenticeship",15426,302,6,4,1,952,"female",6.85856503479136,-1.47545677566934,"male-real","male"
"2932","apprenticeship",22317,401,151,4,1,832,"female",6.72383244082121,1.12787371250713,"female-real","male"
"2933","apprenticeship",11212,207,93,2,1,546,"female",6.30261897574491,0.0865415172365379,"none","male"
"2934","apprenticeship",6474,112,60,2,1,675,"male",6.51471269087253,-0.505940593865693,"none","male"
"2935","apprenticeship",16680,304,35,2,1,906,"male",6.80903930604298,-0.95479067803405,"none","male"
"2936","apprenticeship",6927,113,30,4,1,706,"male",6.55961523749324,-1.04456069486772,"male-real","male"
"2937","apprenticeship",284,101,72,7,1,822,"female",6.71174039505618,-0.290492553464882,"female-real","male"
"2938","apprenticeship",8902,203,95,2,0,503,"female",6.22059017009974,0.122449523970006,"none","male"
"3747","assistant",9415,204,76,7,1,613,"female",6.41836493593621,-0.218676539997945,"male-real","female"
"3748","assistant",3340,106,186,4,1,693,"female",6.5410299991899,1.75626383034283,"male-real","female"
"3749","assistant",22080,401,63,2,1,832,"female",6.72383244082121,-0.45207858376549,"none","female"
"3750","assistant",20622,310,180,4,1,603,"female",6.40191719672719,1.64853981014242,"male-real","female"
"3751","assistant",12103,209,29,2,1,740,"female",6.60665018619822,-1.06251469823446,"none","female"
"3752","assistant",2521,105,80,7,1,587,"female",6.3750248198281,-0.146860526531008,"female-real","female"
"3753","assistant",5441,110,94,2,1,625,"male",6.4377516497364,0.104495520603272,"none","female"
"3754","assistant",16906,304,96,2,1,922,"male",6.82654522355659,0.140403527336741,"none","female"
"3755","assistant",15373,301,187,4,1,829,"female",6.7202201551353,1.77421783370956,"male-real","female"
"3756","assistant",8091,202,39,7,1,612,"male",6.41673228251233,-0.882974664567113,"male-real","female"
"3757","assistant",15372,301,187,4,1,829,"female",6.7202201551353,1.77421783370956,"male-real","female"
"3758","assistant",11274,207,118,7,1,707,"female",6.56103066589657,0.535391601404895,"male-real","female"
"3759","assistant",5439,110,94,2,1,625,"male",6.4377516497364,0.104495520603272,"none","female"
"3760","assistant",3373,107,2,2,1,603,"female",6.40191719672719,-1.54727278913628,"none","female"
"3761","assistant",13842,212,43,2,1,596,"male",6.39024066706535,-0.811158651100176,"none","female"
"3762","assistant",3935,107,196,7,1,542,"female",6.29526600143965,1.93580386401017,"female-real","female"
"3763","assistant",7855,201,144,4,1,633,"female",6.45047042214418,1.00219568893999,"female-real","female"
"3764","assistant",136,101,39,7,1,598,"female",6.39359075395063,-0.882974664567113,"female-real","female"
"3765","assistant",3936,107,196,7,1,542,"female",6.29526600143965,1.93580386401017,"female-real","female"
"3766","assistant",27636,411,6,4,1,995,"male",6.90274273715859,-1.47545677566934,"female-real","female"
"3767","assistant",8089,202,39,7,1,612,"male",6.41673228251233,-0.882974664567113,"male-real","female"
"3768","assistant",11678,208,62,4,1,1005,"female",6.91274282049318,-0.470032587132225,"female-real","female"
"3769","assistant",13193,211,27,7,1,687,"male",6.53233429222235,-1.09842270496792,"male-real","female"
"3770","assistant",13677,211,194,4,1,778,"male",6.65672652417839,1.8998958572767,"female-real","female"
"3771","assistant",23748,404,47,4,1,724,"female",6.58479139238572,-0.739342637633239,"female-real","female"
"3772","assistant",15859,302,131,4,0,792,"female",6.67456139181443,0.76879364517244,"male-real","female"
"3773","assistant",16905,304,96,2,1,922,"male",6.82654522355659,0.140403527336741,"none","female"
"3774","assistant",12616,210,20,2,1,640,"male",6.46146817635372,-1.22410072853506,"none","female"
"3775","assistant",19289,308,123,7,1,695,"female",6.54391184556479,0.625161618238566,"female-real","female"
"3776","assistant",4714,109,54,2,1,628,"female",6.4425401664682,-0.613664614066099,"none","female"
"3777","assistant",22302,401,146,7,1,612,"female",6.41673228251233,1.03810369567345,"male-real","female"
"3778","assistant",7854,201,144,4,1,633,"female",6.45047042214418,1.00219568893999,"female-real","female"
"3779","assistant",5973,111,86,4,1,715,"female",6.57228254269401,-0.039136506330602,"male-real","female"
"3780","assistant",24508,405,95,2,1,558,"female",6.32435896238131,0.122449523970006,"none","female"
"3781","assistant",3618,107,72,4,1,746,"female",6.61472560020376,-0.290492553464882,"male-real","female"
"3782","assistant",4365,108,117,4,1,587,"female",6.3750248198281,0.51743759803816,"male-real","female"
"3783","assistant",15177,301,100,7,1,920,"female",6.82437367004309,0.212219540803678,"female-real","female"
"3784","assistant",23321,403,95,2,1,597,"female",6.3919171133926,0.122449523970006,"none","female"
"3785","assistant",13678,211,194,4,1,778,"male",6.65672652417839,1.8998958572767,"female-real","female"
"3786","assistant",18882,308,2,2,1,521,"female",6.25575004175337,-1.54727278913628,"none","female"
"3787","assistant",25987,408,31,2,1,667,"female",6.50279004591562,-1.02660669150099,"none","female"
"3788","assistant",24811,406,22,2,1,557,"male",6.32256523992728,-1.1881927218016,"none","female"
"3789","assistant",15699,302,73,7,1,757,"female",6.62936325343745,-0.272538550098148,"female-real","female"
"3790","assistant",24690,405,177,4,1,478,"female",6.16961073249146,1.59467780004222,"female-real","female"
"3791","assistant",10138,205,121,7,1,651,"female",6.47850964220857,0.589253611505098,"male-real","female"
"3792","assistant",22081,401,63,2,1,832,"female",6.72383244082121,-0.45207858376549,"none","female"
"3793","assistant",1597,103,160,7,1,627,"female",6.44094654063292,1.28945974280773,"female-real","female"
"3794","assistant",27933,411,95,2,1,647,"male",6.4723462945009,0.122449523970006,"none","female"
"3795","assistant",15178,301,100,7,1,920,"female",6.82437367004309,0.212219540803678,"female-real","female"
"3796","assistant",14158,212,151,4,1,646,"male",6.4707995037826,1.12787371250713,"female-real","female"
"3797","assistant",23749,404,47,4,1,724,"female",6.58479139238572,-0.739342637633239,"female-real","female"
"3798","assistant",3256,106,147,7,0,659,"female",6.49072353450251,1.05605769904019,"female-real","female"
"3799","assistant",28500,412,91,4,1,745,"male",6.61338421837956,0.0506335105030694,"female-real","female"
"3800","assistant",4715,109,54,2,1,628,"female",6.4425401664682,-0.613664614066099,"none","female"
"3801","assistant",789,102,55,2,1,563,"male",6.33327962813969,-0.595710610699364,"none","female"
"3802","assistant",16368,303,108,4,1,651,"female",6.47850964220857,0.355851567737552,"male-real","female"
"3803","assistant",3617,107,72,4,1,746,"female",6.61472560020376,-0.290492553464882,"male-real","female"
"3804","assistant",636,102,17,7,1,614,"male",6.41999492814714,-1.27796273863527,"female-real","female"
"3805","assistant",23322,403,95,2,1,597,"female",6.3919171133926,0.122449523970006,"none","female"
"3806","assistant",20187,310,41,7,1,1115,"female",7.01660968389422,-0.847066657833644,"female-real","female"
"3807","assistant",7238,113,133,4,1,664,"male",6.49828214947643,0.804701651905909,"male-real","female"
"3808","assistant",27561,410,163,4,1,942,"male",6.84800527457636,1.34332175290794,"female-real","female"
"3809","assistant",24649,405,160,7,1,503,"female",6.22059017009974,1.28945974280773,"male-real","female"
"3810","assistant",7885,201,157,7,1,536,"female",6.2841341610708,1.23559773270753,"male-real","female"
"3811","assistant",22583,402,39,2,1,553,"female",6.31535800152233,-0.882974664567113,"none","female"
"3812","assistant",10633,206,99,2,1,583,"female",6.36818718635049,0.194265537436944,"none","female"
"3813","assistant",23320,403,95,2,1,597,"female",6.3919171133926,0.122449523970006,"none","female"
"3814","assistant",6422,112,45,2,1,570,"male",6.3456363608286,-0.775250644366707,"none","female"
"3815","assistant",10307,206,8,4,1,613,"female",6.41836493593621,-1.43954876893588,"female-real","female"
"3816","assistant",2700,105,147,4,1,718,"female",6.57646956904822,1.05605769904019,"male-real","female"
"3817","assistant",18881,308,2,2,1,521,"female",6.25575004175337,-1.54727278913628,"none","female"
"3818","assistant",167,101,44,4,1,601,"female",6.39859493453521,-0.793204647733441,"male-real","female"
"3819","assistant",13843,212,43,2,1,596,"male",6.39024066706535,-0.811158651100176,"none","female"
"3820","assistant",16904,304,96,2,1,922,"male",6.82654522355659,0.140403527336741,"none","female"
"3821","assistant",27562,410,163,4,1,942,"male",6.84800527457636,1.34332175290794,"female-real","female"
"3822","assistant",24812,406,22,2,1,557,"male",6.32256523992728,-1.1881927218016,"none","female"
"3823","assistant",6423,112,45,2,1,570,"male",6.3456363608286,-0.775250644366707,"none","female"
"3824","assistant",14157,212,151,4,1,646,"male",6.4707995037826,1.12787371250713,"female-real","female"
"3825","assistant",22584,402,39,2,1,553,"female",6.31535800152233,-0.882974664567113,"none","female"
"3826","assistant",6421,112,45,2,1,570,"male",6.3456363608286,-0.775250644366707,"none","female"
"3827","assistant",11273,207,118,7,1,707,"female",6.56103066589657,0.535391601404895,"male-real","female"
"3828","assistant",18253,306,179,4,1,612,"male",6.41673228251233,1.63058580677569,"male-real","female"
"3829","assistant",18761,307,144,4,1,632,"male",6.44888939414686,1.00219568893999,"male-real","female"
"3830","assistant",24691,405,177,4,1,478,"female",6.16961073249146,1.59467780004222,"female-real","female"
"3831","assistant",15700,302,73,7,1,757,"female",6.62936325343745,-0.272538550098148,"female-real","female"
"3832","assistant",24507,405,95,2,1,558,"female",6.32435896238131,0.122449523970006,"none","female"
"3833","assistant",19080,308,48,4,1,615,"female",6.42162226780652,-0.721388634266504,"male-real","female"
"3834","assistant",11240,207,106,4,1,653,"female",6.48157712927643,0.319943561004083,"female-real","female"
"3835","assistant",3255,106,147,7,0,659,"female",6.49072353450251,1.05605769904019,"female-real","female"
"3836","assistant",1847,104,41,2,1,523,"female",6.25958146406492,-0.847066657833644,"none","female"
"3837","assistant",8117,202,45,2,1,544,"male",6.29894924685594,-0.775250644366707,"none","female"
"3838","assistant",27935,411,95,2,1,647,"male",6.4723462945009,0.122449523970006,"none","female"
"3839","assistant",12617,210,20,2,1,640,"male",6.46146817635372,-1.22410072853506,"none","female"
"3840","assistant",1846,104,41,2,1,523,"female",6.25958146406492,-0.847066657833644,"none","female"
"3841","assistant",4111,108,39,7,1,735,"female",6.59987049921284,-0.882974664567113,"female-real","female"
"3842","assistant",27503,410,140,7,1,665,"male",6.49978704065585,0.930379675473049,"male-real","female"
"3843","assistant",11591,208,38,2,1,568,"female",6.34212141872115,-0.900928667933847,"none","female"
"3844","assistant",26891,409,129,4,1,672,"female",6.51025834052315,0.732885638438972,"female-real","female"
"3845","assistant",8090,202,39,7,1,612,"male",6.41673228251233,-0.882974664567113,"male-real","female"
"3846","assistant",14772,213,178,7,1,643,"male",6.46614472423762,1.61263180340895,"male-real","female"
"3847","assistant",28502,412,91,4,1,745,"male",6.61338421837956,0.0506335105030694,"female-real","female"
"3848","assistant",6804,112,197,7,1,602,"male",6.40025744530882,1.9537578673769,"female-real","female"
"3849","assistant",137,101,39,7,1,598,"female",6.39359075395063,-0.882974664567113,"female-real","female"
"3850","assistant",17596,305,151,4,1,695,"female",6.54391184556479,1.12787371250713,"male-real","female"
"3851","assistant",5929,111,76,2,1,505,"female",6.22455842927536,-0.218676539997945,"none","female"
"3852","assistant",5331,110,60,7,1,724,"male",6.58479139238572,-0.505940593865693,"female-real","female"
"3853","assistant",10634,206,99,2,1,583,"female",6.36818718635049,0.194265537436944,"none","female"
"3854","assistant",28083,411,147,7,1,865,"male",6.76272950693188,1.05605769904019,"male-real","female"
"3855","assistant",10306,206,8,4,1,613,"female",6.41836493593621,-1.43954876893588,"female-real","female"
"3856","assistant",6849,113,11,2,1,641,"male",6.46302945692067,-1.38568675883567,"none","female"
"3857","assistant",5614,110,172,4,1,557,"male",6.32256523992728,1.50490778320855,"male-real","female"
"3858","assistant",15701,302,73,7,1,757,"female",6.62936325343745,-0.272538550098148,"female-real","female"
"3859","assistant",6850,113,11,2,1,641,"male",6.46302945692067,-1.38568675883567,"none","female"
"3860","assistant",22360,401,168,4,1,611,"female",6.4150969591716,1.43309176974161,"female-real","female"
"3861","assistant",21008,311,92,4,1,563,"male",6.33327962813969,0.0685875138698037,"male-real","female"
"3862","assistant",20255,310,55,2,1,550,"female",6.30991827822652,-0.595710610699364,"none","female"
"3863","assistant",27934,411,95,2,1,647,"male",6.4723462945009,0.122449523970006,"none","female"
"3864","assistant",18252,306,179,4,1,612,"male",6.41673228251233,1.63058580677569,"male-real","female"
"3865","assistant",20253,310,55,2,1,550,"female",6.30991827822652,-0.595710610699364,"none","female"
"3866","assistant",6825,113,6,7,1,1019,"male",6.92657703322272,-1.47545677566934,"female-real","female"
"3867","assistant",17705,305,197,7,1,647,"female",6.4723462945009,1.9537578673769,"female-real","female"
"3868","assistant",14900,301,28,2,1,1032,"female",6.93925394604151,-1.08046870160119,"none","female"
"3869","assistant",11878,208,137,7,1,785,"female",6.66568371778241,0.876517665372846,"male-real","female"
"3870","assistant",2520,105,80,7,1,587,"female",6.3750248198281,-0.146860526531008,"female-real","female"
"3871","assistant",6824,113,6,7,1,1019,"male",6.92657703322272,-1.47545677566934,"female-real","female"
"3872","assistant",637,102,17,7,1,614,"male",6.41999492814714,-1.27796273863527,"female-real","female"
"3873","assistant",364,101,96,2,1,552,"female",6.31354804627709,0.140403527336741,"none","female"
"3874","assistant",22600,402,43,4,1,611,"female",6.4150969591716,-0.811158651100176,"female-real","female"
"3875","assistant",13254,211,44,2,1,669,"male",6.50578406012823,-0.793204647733441,"none","female"
"3876","assistant",14350,213,36,2,1,584,"male",6.36990098282823,-0.936836674667316,"none","female"
"3877","assistant",1596,103,160,7,1,627,"female",6.44094654063292,1.28945974280773,"female-real","female"
"3878","assistant",8116,202,45,2,1,544,"male",6.29894924685594,-0.775250644366707,"none","female"
"3879","assistant",16984,304,125,7,1,827,"male",6.71780469502369,0.661069624972035,"female-real","female"
"3880","assistant",4713,109,54,2,1,628,"female",6.4425401664682,-0.613664614066099,"none","female"
"3881","assistant",11879,208,137,7,1,785,"female",6.66568371778241,0.876517665372846,"male-real","female"
"3882","assistant",23747,404,47,4,1,724,"female",6.58479139238572,-0.739342637633239,"female-real","female"
"3883","assistant",23582,403,196,4,1,664,"female",6.49828214947643,1.93580386401017,"female-real","female"
"3884","assistant",10139,205,121,7,1,651,"female",6.47850964220857,0.589253611505098,"male-real","female"
"3885","assistant",16302,303,82,2,1,670,"female",6.50727771238501,-0.110952519797539,"none","female"
"3886","assistant",22500,402,21,7,0,849,"female",6.74405918631135,-1.20614672516833,"male-real","female"
"3887","assistant",3063,106,71,2,1,632,"female",6.44888939414686,-0.308446556831616,"none","female"
"3888","assistant",8021,202,18,4,1,511,"male",6.2363695902037,-1.26000873526853,"female-real","female"
"3889","assistant",17449,305,83,2,1,597,"female",6.3919171133926,-0.0929985164308048,"none","female"
"3890","assistant",20254,310,55,2,1,550,"female",6.30991827822652,-0.595710610699364,"none","female"
"3891","assistant",13195,211,27,7,1,687,"male",6.53233429222235,-1.09842270496792,"male-real","female"
"3892","assistant",9798,205,27,2,0,546,"female",6.30261897574491,-1.09842270496792,"none","female"
"3893","assistant",23165,403,49,7,1,548,"female",6.30627528694802,-0.70343463089977,"male-real","female"
"3894","assistant",14777,213,179,4,1,651,"male",6.47850964220857,1.63058580677569,"female-real","female"
"3895","assistant",9316,204,49,2,1,624,"female",6.43615036836943,-0.70343463089977,"none","female"
"3896","assistant",15631,302,55,2,1,511,"female",6.2363695902037,-0.595710610699364,"none","female"
"3897","assistant",21441,312,50,2,1,562,"male",6.33150184989369,-0.685480627533036,"none","female"
"3898","assistant",27502,410,140,7,1,665,"male",6.49978704065585,0.930379675473049,"male-real","female"
"3899","assistant",21470,312,56,4,1,460,"male",6.13122648948314,-0.57775660733263,"male-real","female"
"3900","assistant",27096,410,12,2,1,535,"male",6.28226674689601,-1.36773275546894,"none","female"
"3901","assistant",28501,412,91,4,1,745,"male",6.61338421837956,0.0506335105030694,"female-real","female"
"3902","assistant",22359,401,168,4,1,611,"female",6.4150969591716,1.43309176974161,"female-real","female"
"3903","assistant",14901,301,28,2,1,1032,"female",6.93925394604151,-1.08046870160119,"none","female"
"3904","assistant",1340,103,63,2,1,829,"female",6.7202201551353,-0.45207858376549,"none","female"
"3905","assistant",10898,207,9,2,1,547,"female",6.30444880242198,-1.42159476556914,"none","female"
"3906","assistant",2522,105,80,7,1,587,"female",6.3750248198281,-0.146860526531008,"female-real","female"
"3907","assistant",6238,111,190,7,1,765,"female",6.63987583382654,1.82807984380976,"female-real","female"
"3908","assistant",1590,103,155,4,1,929,"female",6.83410873881384,1.19968972597406,"male-real","female"
"3909","assistant",10305,206,8,4,1,613,"female",6.41836493593621,-1.43954876893588,"female-real","female"
"3910","assistant",4943,109,113,7,1,849,"female",6.74405918631135,0.445621584571223,"female-real","female"
"3911","assistant",5440,110,94,2,1,625,"male",6.4377516497364,0.104495520603272,"none","female"
"3912","assistant",2551,105,89,2,1,678,"female",6.5191472879404,0.0147255037696009,"none","female"
"3913","assistant",16303,303,82,2,1,670,"female",6.50727771238501,-0.110952519797539,"none","female"
"3914","assistant",25154,406,126,7,1,677,"male",6.51767127291227,0.679023628338769,"male-real","female"
"3915","assistant",20188,310,41,7,1,1115,"female",7.01660968389422,-0.847066657833644,"female-real","female"
"3916","assistant",12605,210,15,7,1,847,"male",6.74170069465205,-1.31387074536874,"male-real","female"
"3917","assistant",10252,205,178,4,1,669,"female",6.50578406012823,1.61263180340895,"female-real","female"
"3918","assistant",1904,104,61,7,1,720,"female",6.5792512120101,-0.487986590498959,"female-real","female"
"3919","assistant",9800,205,27,2,0,546,"female",6.30261897574491,-1.09842270496792,"none","female"
"3920","assistant",26192,408,82,4,1,641,"female",6.46302945692067,-0.110952519797539,"female-real","female"
"3921","assistant",9799,205,27,2,0,546,"female",6.30261897574491,-1.09842270496792,"none","female"
"3922","assistant",5055,109,169,4,1,959,"female",6.86589107488344,1.45104577310834,"male-real","female"
"3923","assistant",26697,409,60,2,1,520,"female",6.25382881157547,-0.505940593865693,"none","female"
"3924","assistant",23166,403,49,7,1,548,"female",6.30627528694802,-0.70343463089977,"male-real","female"
"3925","assistant",22601,402,43,4,1,611,"female",6.4150969591716,-0.811158651100176,"female-real","female"
"3926","assistant",15632,302,55,2,1,511,"female",6.2363695902037,-0.595710610699364,"none","female"
"3927","assistant",4158,108,51,2,1,548,"female",6.30627528694802,-0.667526624166301,"none","female"
"3928","assistant",19887,309,122,4,1,631,"female",6.44730586254121,0.607207614871832,"male-real","female"
"3929","assistant",6803,112,197,7,1,602,"male",6.40025744530882,1.9537578673769,"female-real","female"
"3930","assistant",12656,210,28,4,1,1086,"male",6.99025650049388,-1.08046870160119,"female-real","female"
"3931","assistant",13932,212,69,7,1,599,"male",6.39526159811545,-0.344354563565085,"male-real","female"
"3932","assistant",21471,312,56,4,1,460,"male",6.13122648948314,-0.57775660733263,"male-real","female"
"3933","assistant",3064,106,71,2,1,632,"female",6.44888939414686,-0.308446556831616,"none","female"
"3934","assistant",13194,211,27,7,1,687,"male",6.53233429222235,-1.09842270496792,"male-real","female"
"3935","assistant",10899,207,9,2,1,547,"female",6.30444880242198,-1.42159476556914,"none","female"
"3936","assistant",25543,407,67,2,1,515,"female",6.24416690066374,-0.380262570298553,"none","female"
"3937","assistant",26388,408,155,7,1,570,"female",6.3456363608286,1.19968972597406,"male-real","female"
"3938","assistant",22501,402,21,7,0,849,"female",6.74405918631135,-1.20614672516833,"male-real","female"
"3939","assistant",8910,203,96,2,1,636,"female",6.45519856334012,0.140403527336741,"none","female"
"3940","assistant",19081,308,48,4,1,615,"female",6.42162226780652,-0.721388634266504,"male-real","female"
"3941","assistant",13844,212,43,2,1,596,"male",6.39024066706535,-0.811158651100176,"none","female"
"3942","assistant",23723,404,40,2,1,659,"female",6.49072353450251,-0.865020661200379,"none","female"
"3943","assistant",25765,407,147,4,1,602,"female",6.40025744530882,1.05605769904019,"female-real","female"
"3944","assistant",9357,204,61,4,1,538,"female",6.28785856016178,-0.487986590498959,"female-real","female"
"3945","assistant",24734,406,1,4,1,1020,"male",6.92755790627832,-1.56522679250302,"female-real","female"
"3946","assistant",25988,408,31,2,1,667,"female",6.50279004591562,-1.02660669150099,"none","female"
"3947","assistant",8909,203,96,2,1,636,"female",6.45519856334012,0.140403527336741,"none","female"
"3948","assistant",18547,307,59,7,1,988,"male",6.89568269774787,-0.523894597232427,"female-real","female"
"3949","assistant",4157,108,51,2,1,548,"female",6.30627528694802,-0.667526624166301,"none","female"
"3950","assistant",12604,210,15,7,1,847,"male",6.74170069465205,-1.31387074536874,"male-real","female"
"3951","assistant",22599,402,43,4,1,611,"female",6.4150969591716,-0.811158651100176,"female-real","female"
"3952","assistant",10578,206,87,7,1,695,"female",6.54391184556479,-0.0211825029638677,"male-real","female"
"3953","assistant",12655,210,28,4,1,1086,"male",6.99025650049388,-1.08046870160119,"female-real","female"
"3954","assistant",9358,204,61,4,1,538,"female",6.28785856016178,-0.487986590498959,"female-real","female"
"3955","assistant",8908,203,96,2,1,636,"female",6.45519856334012,0.140403527336741,"none","female"
"3956","assistant",7693,201,83,2,1,595,"female",6.38856140554563,-0.0929985164308048,"none","female"
"3957","assistant",21009,311,92,4,1,563,"male",6.33327962813969,0.0685875138698037,"male-real","female"
"3958","assistant",21292,312,10,7,1,491,"male",6.19644412779452,-1.40364076220241,"female-real","female"
"3959","assistant",20928,311,73,2,1,508,"male",6.23048144757848,-0.272538550098148,"none","female"
"3960","assistant",25766,407,147,4,1,602,"female",6.40025744530882,1.05605769904019,"female-real","female"
"3961","assistant",6769,112,180,4,1,651,"male",6.47850964220857,1.64853981014242,"male-real","female"
"3962","assistant",10579,206,87,7,1,695,"female",6.54391184556479,-0.0211825029638677,"male-real","female"
"3963","assistant",12657,210,28,4,1,1086,"male",6.99025650049388,-1.08046870160119,"female-real","female"
"3964","assistant",8862,203,83,4,1,566,"female",6.33859407820318,-0.0929985164308048,"female-real","female"
"3965","assistant",28343,412,49,7,1,785,"male",6.66568371778241,-0.70343463089977,"male-real","female"
"3966","assistant",26523,409,17,7,1,673,"female",6.51174532964473,-1.27796273863527,"male-real","female"
"3967","assistant",9359,204,61,4,1,538,"female",6.28785856016178,-0.487986590498959,"female-real","female"
"3968","assistant",20929,311,73,2,1,508,"male",6.23048144757848,-0.272538550098148,"none","female"
"3969","assistant",13933,212,69,7,1,599,"male",6.39526159811545,-0.344354563565085,"male-real","female"
"3970","assistant",8020,202,18,4,1,511,"male",6.2363695902037,-1.26000873526853,"female-real","female"
"3971","assistant",23969,404,104,7,1,544,"female",6.29894924685594,0.284035554270615,"male-real","female"
"3972","assistant",978,102,117,4,1,615,"male",6.42162226780652,0.51743759803816,"male-real","female"
"3973","assistant",26524,409,17,7,1,673,"female",6.51174532964473,-1.27796273863527,"male-real","female"
"3974","assistant",20892,311,65,7,1,548,"male",6.30627528694802,-0.416170577032022,"female-real","female"
"3975","assistant",6768,112,180,4,1,651,"male",6.47850964220857,1.64853981014242,"male-real","female"
"3976","assistant",7694,201,83,2,1,595,"female",6.38856140554563,-0.0929985164308048,"none","female"
"3977","assistant",12509,209,173,7,1,1155,"female",7.05185562295589,1.52286178657528,"male-real","female"
"3978","assistant",16408,303,124,7,1,705,"female",6.55819780281227,0.6431156216053,"female-real","female"
"3979","assistant",12508,209,173,7,1,1155,"female",7.05185562295589,1.52286178657528,"male-real","female"
"3980","assistant",12156,209,48,4,1,1232,"female",7.11639414409346,-0.721388634266504,"female-real","female"
"3981","assistant",21293,312,10,7,1,491,"male",6.19644412779452,-1.40364076220241,"female-real","female"
"3982","assistant",14776,213,179,4,1,651,"male",6.47850964220857,1.63058580677569,"female-real","female"
"3983","assistant",28344,412,49,7,1,785,"male",6.66568371778241,-0.70343463089977,"male-real","female"
"3984","assistant",18581,307,74,2,1,525,"male",6.26339826259162,-0.254584546731413,"none","female"
"3985","auntie",10439,206,49,4,1,670,"female",6.50727771238501,-0.70343463089977,"female-real","female"
"3986","auntie",2012,104,96,2,1,581,"female",6.36475075685191,0.140403527336741,"none","female"
"3987","auntie",1161,103,5,4,1,957,"female",6.86380339145295,-1.49341077903608,"male-real","female"
"3988","auntie",5574,110,146,4,0,576,"male",6.35610766069589,1.03810369567345,"male-real","female"
"3989","auntie",5289,110,49,2,1,668,"male",6.50428817353665,-0.70343463089977,"none","female"
"3990","auntie",5407,110,86,7,1,754,"male",6.62539236800796,-0.039136506330602,"female-real","female"
"3991","auntie",8977,203,128,4,1,709,"female",6.56385552653213,0.714931635072238,"female-real","female"
"3992","auntie",9047,203,162,7,1,518,"female",6.24997524225948,1.3253677495412,"male-real","female"
"3993","auntie",19670,309,56,2,1,521,"female",6.25575004175337,-0.57775660733263,"none","female"
"3994","auntie",2377,105,43,2,1,592,"female",6.38350663488401,-0.811158651100176,"none","female"
"3995","auntie",22175,401,92,2,1,781,"female",6.66057514983969,0.0685875138698037,"none","female"
"3996","auntie",10910,207,11,7,1,493,"female",6.20050917404269,-1.38568675883567,"male-real","female"
"3997","auntie",10438,206,49,4,1,670,"female",6.50727771238501,-0.70343463089977,"female-real","female"
"3998","auntie",9776,205,21,2,1,760,"female",6.63331843328038,-1.20614672516833,"none","female"
"3999","auntie",12010,209,6,7,1,1550,"female",7.34601020991329,-1.47545677566934,"male-real","female"
"4000","auntie",3346,106,188,7,1,659,"female",6.49072353450251,1.79217183707629,"female-real","female"
"4001","auntie",2376,105,43,2,1,592,"female",6.38350663488401,-0.811158651100176,"none","female"
"4002","auntie",354,101,93,7,1,520,"female",6.25382881157547,0.0865415172365379,"female-real","female"
"4003","auntie",25507,407,59,2,1,645,"female",6.46925031679577,-0.523894597232427,"none","female"
"4004","auntie",15863,302,134,4,1,576,"female",6.35610766069589,0.822655655272643,"male-real","female"
"4005","auntie",27679,411,14,7,1,833,"male",6.72503364216684,-1.33182474873547,"male-real","female"
"4006","auntie",16507,303,173,7,1,667,"female",6.50279004591562,1.52286178657528,"female-real","female"
"4007","auntie",8976,203,128,4,1,709,"female",6.56385552653213,0.714931635072238,"female-real","female"
"4008","auntie",23509,403,164,4,1,606,"female",6.40687998606931,1.36127575627467,"female-real","female"
"4009","auntie",1160,103,5,7,1,817,"female",6.70563909486,-1.49341077903608,"female-real","female"
"4010","auntie",26748,409,76,4,1,692,"female",6.53958595561767,-0.218676539997945,"female-real","female"
"4011","auntie",13788,212,28,2,1,691,"male",6.53813982376767,-1.08046870160119,"none","female"
"4012","auntie",21033,311,97,4,1,648,"male",6.47389069635227,0.158357530703475,"male-real","female"
"4013","auntie",19624,309,43,7,1,574,"female",6.35262939631957,-0.811158651100176,"female-real","female"
"4014","auntie",22173,401,92,2,1,781,"female",6.66057514983969,0.0685875138698037,"none","female"
"4015","auntie",27677,411,14,7,1,833,"male",6.72503364216684,-1.33182474873547,"male-real","female"
"4016","auntie",2375,105,43,2,1,592,"female",6.38350663488401,-0.811158651100176,"none","female"
"4017","auntie",5575,110,146,4,0,576,"male",6.35610766069589,1.03810369567345,"male-real","female"
"4018","auntie",13142,211,14,2,1,872,"male",6.77078942390898,-1.33182474873547,"none","female"
"4019","auntie",21115,311,138,7,1,805,"male",6.69084227741856,0.89447166873958,"female-real","female"
"4020","auntie",1843,104,40,4,0,746,"female",6.61472560020376,-0.865020661200379,"male-real","female"
"4021","auntie",13787,212,28,2,1,691,"male",6.53813982376767,-1.08046870160119,"none","female"
"4022","auntie",10374,206,34,2,1,599,"female",6.39526159811545,-0.972744681400784,"none","female"
"4023","auntie",3332,106,181,4,1,586,"female",6.37331978957701,1.66649381350915,"male-real","female"
"4024","auntie",21310,312,14,2,1,624,"male",6.43615036836943,-1.33182474873547,"none","female"
"4025","auntie",8233,202,73,2,1,568,"male",6.34212141872115,-0.272538550098148,"none","female"
"4026","auntie",11526,208,20,7,1,733,"female",6.59714570188665,-1.22410072853506,"male-real","female"
"4027","auntie",12011,209,6,7,1,1550,"female",7.34601020991329,-1.47545677566934,"male-real","female"
"4028","auntie",11527,208,20,7,1,733,"female",6.59714570188665,-1.22410072853506,"male-real","female"
"4029","auntie",22174,401,92,2,1,781,"female",6.66057514983969,0.0685875138698037,"none","female"
"4030","auntie",353,101,93,7,1,520,"female",6.25382881157547,0.0865415172365379,"female-real","female"
"4031","auntie",28680,412,162,7,1,704,"male",6.55677835615804,1.3253677495412,"male-real","female"
"4032","auntie",13141,211,14,2,1,872,"male",6.77078942390898,-1.33182474873547,"none","female"
"4033","auntie",10911,207,11,7,1,493,"female",6.20050917404269,-1.38568675883567,"male-real","female"
"4034","auntie",22420,401,197,7,1,568,"female",6.34212141872115,1.9537578673769,"male-real","female"
"4035","auntie",23508,403,164,4,1,606,"female",6.40687998606931,1.36127575627467,"female-real","female"
"4036","auntie",8232,202,73,2,1,568,"male",6.34212141872115,-0.272538550098148,"none","female"
"4037","auntie",15520,302,30,2,1,621,"female",6.43133108193348,-1.04456069486772,"none","female"
"4038","auntie",10373,206,34,2,1,599,"female",6.39526159811545,-0.972744681400784,"none","female"
"4039","auntie",669,102,23,2,1,695,"male",6.54391184556479,-1.17023871843486,"none","female"
"4040","auntie",28203,412,5,2,1,646,"male",6.4707995037826,-1.49341077903608,"none","female"
"4041","auntie",28205,412,5,2,1,646,"male",6.4707995037826,-1.49341077903608,"none","female"
"4042","auntie",1805,104,34,7,1,698,"female",6.54821910276237,-0.972744681400784,"female-real","female"
"4043","auntie",13832,212,41,4,1,809,"male",6.69579891705849,-0.847066657833644,"female-real","female"
"4044","auntie",11074,207,55,2,1,551,"female",6.31173480915291,-0.595710610699364,"none","female"
"4045","auntie",26749,409,76,4,1,692,"female",6.53958595561767,-0.218676539997945,"female-real","female"
"4046","auntie",27678,411,14,7,1,833,"male",6.72503364216684,-1.33182474873547,"male-real","female"
"4047","auntie",7715,201,90,2,1,578,"female",6.35957386867238,0.0326795071363351,"none","female"
"4048","auntie",16508,303,173,7,1,667,"female",6.50279004591562,1.52286178657528,"female-real","female"
"4049","auntie",9777,205,21,2,1,760,"female",6.63331843328038,-1.20614672516833,"none","female"
"4050","auntie",21032,311,97,4,1,648,"male",6.47389069635227,0.158357530703475,"male-real","female"
"4051","auntie",19672,309,56,2,1,521,"female",6.25575004175337,-0.57775660733263,"none","female"
"4052","auntie",27227,410,42,7,1,984,"male",6.89162589705225,-0.82911265446691,"male-real","female"
"4053","auntie",7713,201,90,2,1,578,"female",6.35957386867238,0.0326795071363351,"none","female"
"4054","auntie",5729,111,21,4,1,850,"female",6.74523634948436,-1.20614672516833,"male-real","female"
"4055","auntie",4397,108,134,4,1,524,"female",6.26149168432104,0.822655655272643,"male-real","female"
"4056","auntie",1804,104,34,7,1,698,"female",6.54821910276237,-0.972744681400784,"female-real","female"
"4057","auntie",23769,404,50,2,1,501,"female",6.21660610108486,-0.685480627533036,"none","female"
"4058","auntie",18966,308,21,4,1,449,"female",6.10702288774225,-1.20614672516833,"male-real","female"
"4059","auntie",10676,206,113,7,1,537,"female",6.28599809450886,0.445621584571223,"male-real","female"
"4060","auntie",144,101,40,2,0,596,"female",6.39024066706535,-0.865020661200379,"none","female"
"4061","auntie",10677,206,113,7,1,537,"female",6.28599809450886,0.445621584571223,"male-real","female"
"4062","auntie",22421,401,197,7,1,568,"female",6.34212141872115,1.9537578673769,"male-real","female"
"4063","auntie",25506,407,59,2,1,645,"female",6.46925031679577,-0.523894597232427,"none","female"
"4064","auntie",9892,205,54,7,1,1014,"female",6.92165818415113,-0.613664614066099,"male-real","female"
"4065","auntie",25119,406,104,4,1,594,"male",6.38687931936265,0.284035554270615,"female-real","female"
"4066","auntie",24145,404,193,4,1,953,"female",6.8596149036542,1.88194185390997,"female-real","female"
"4067","auntie",15505,302,26,7,1,635,"female",6.45362499889269,-1.11637670833466,"female-real","female"
"4068","auntie",506,101,158,4,1,573,"female",6.35088571671474,1.25355173607427,"male-real","female"
"4069","auntie",27350,410,79,4,1,785,"male",6.66568371778241,-0.164814529897742,"female-real","female"
"4070","auntie",9603,204,162,7,1,529,"female",6.2709884318583,1.3253677495412,"male-real","female"
"4071","auntie",28204,412,5,2,1,646,"male",6.4707995037826,-1.49341077903608,"none","female"
"4072","auntie",11073,207,55,2,1,551,"female",6.31173480915291,-0.595710610699364,"none","female"
"4073","auntie",6950,113,39,2,1,1060,"male",6.96602418710611,-0.882974664567113,"none","female"
"4074","auntie",24512,405,96,2,1,480,"female",6.17378610390194,0.140403527336741,"none","female"
"4075","auntie",7714,201,90,2,1,578,"female",6.35957386867238,0.0326795071363351,"none","female"
"4076","auntie",668,102,23,2,1,695,"male",6.54391184556479,-1.17023871843486,"none","female"
"4077","auntie",26802,409,84,7,1,681,"female",6.52356230614951,-0.0750445130640705,"male-real","female"
"4078","auntie",25605,407,90,4,1,446,"female",6.10031895202006,0.0326795071363351,"female-real","female"
"4079","auntie",25508,407,59,2,1,645,"female",6.46925031679577,-0.523894597232427,"none","female"
"4080","auntie",16860,304,85,7,1,888,"male",6.78897174299217,-0.0570905096973362,"female-real","female"
"4081","auntie",27228,410,42,7,1,984,"male",6.89162589705225,-0.82911265446691,"male-real","female"
"4082","auntie",6447,112,53,2,0,516,"male",6.24610676548156,-0.631618617432833,"none","female"
"4083","auntie",23213,403,61,2,1,641,"female",6.46302945692067,-0.487986590498959,"none","female"
"4084","auntie",26801,409,84,7,1,681,"female",6.52356230614951,-0.0750445130640705,"male-real","female"
"4085","auntie",15506,302,26,7,1,635,"female",6.45362499889269,-1.11637670833466,"female-real","female"
"4086","auntie",7792,201,119,7,1,654,"female",6.4831073514572,0.553345604771629,"male-real","female"
"4087","auntie",18363,307,15,2,1,681,"male",6.52356230614951,-1.31387074536874,"none","female"
"4088","auntie",5855,111,53,2,1,744,"female",6.61204103483309,-0.631618617432833,"none","female"
"4089","auntie",26750,409,76,4,1,692,"female",6.53958595561767,-0.218676539997945,"female-real","female"
"4090","auntie",15519,302,30,2,1,621,"female",6.43133108193348,-1.04456069486772,"none","female"
"4091","auntie",19671,309,56,2,1,521,"female",6.25575004175337,-0.57775660733263,"none","female"
"4092","auntie",12682,210,36,2,1,630,"male",6.44571981938558,-0.936836674667316,"none","female"
"4093","auntie",18855,307,189,7,1,832,"male",6.72383244082121,1.81012584044303,"female-real","female"
"4094","auntie",15012,301,65,2,1,794,"female",6.67708346124714,-0.416170577032022,"none","female"
"4095","auntie",1162,103,5,4,1,957,"female",6.86380339145295,-1.49341077903608,"male-real","female"
"4096","auntie",18596,307,78,4,1,727,"male",6.58892647753352,-0.182768533264476,"male-real","female"
"4097","auntie",4584,109,23,4,1,895,"female",6.79682371827486,-1.17023871843486,"male-real","female"
"4098","auntie",17584,305,143,7,1,557,"female",6.32256523992728,0.984241685573252,"female-real","female"
"4099","auntie",2680,105,141,4,1,718,"female",6.57646956904822,0.948333678839783,"male-real","female"
"4100","auntie",18362,307,15,2,1,681,"male",6.52356230614951,-1.31387074536874,"none","female"
"4101","auntie",22078,401,63,4,1,1085,"female",6.98933526597456,-0.45207858376549,"female-real","female"
"4102","auntie",1159,103,5,7,1,817,"female",6.70563909486,-1.49341077903608,"female-real","female"
"4103","auntie",13143,211,14,2,1,872,"male",6.77078942390898,-1.33182474873547,"none","female"
"4104","auntie",24633,405,153,7,1,720,"female",6.5792512120101,1.16378171924059,"male-real","female"
"4105","auntie",22828,402,121,7,1,771,"female",6.64768837356333,0.589253611505098,"male-real","female"
"4106","auntie",25607,407,90,4,1,446,"female",6.10031895202006,0.0326795071363351,"female-real","female"
"4107","auntie",18222,306,165,4,1,636,"male",6.45519856334012,1.37922975964141,"male-real","female"
"4108","auntie",8893,203,93,2,1,618,"female",6.42648845745769,0.0865415172365379,"none","female"
"4109","auntie",22861,402,139,4,1,607,"female",6.4085287910595,0.912425672106315,"female-real","female"
"4110","auntie",4582,109,23,4,1,895,"female",6.79682371827486,-1.17023871843486,"male-real","female"
"4111","auntie",4632,109,33,2,1,678,"female",6.5191472879404,-0.990698684767518,"none","female"
"4112","auntie",11440,207,198,4,1,487,"female",6.18826412308259,1.97171187074364,"female-real","female"
"4113","auntie",22690,402,75,2,1,668,"female",6.50428817353665,-0.236630543364679,"none","female"
"4114","auntie",16899,304,95,4,1,619,"male",6.4281052726846,0.122449523970006,"male-real","female"
"4115","auntie",7791,201,119,7,1,654,"female",6.4831073514572,0.553345604771629,"male-real","female"
"4116","auntie",3345,106,188,7,1,659,"female",6.49072353450251,1.79217183707629,"female-real","female"
"4117","auntie",15329,301,164,4,1,820,"female",6.7093043402583,1.36127575627467,"male-real","female"
"4118","auntie",25606,407,90,4,1,446,"female",6.10031895202006,0.0326795071363351,"female-real","female"
"4119","auntie",14814,213,194,7,1,616,"male",6.42324696353352,1.8998958572767,"male-real","female"
"4120","auntie",25120,406,104,4,1,594,"male",6.38687931936265,0.284035554270615,"female-real","female"
"4121","auntie",24794,406,17,2,1,601,"male",6.39859493453521,-1.27796273863527,"none","female"
"4122","auntie",28101,411,155,4,1,780,"male",6.65929391968364,1.19968972597406,"female-real","female"
"4123","auntie",17907,306,56,2,1,741,"male",6.60800062529609,-0.57775660733263,"none","female"
"4124","auntie",10239,205,172,4,1,883,"female",6.78332520060396,1.50490778320855,"female-real","female"
"4125","auntie",22829,402,121,7,1,771,"female",6.64768837356333,0.589253611505098,"male-real","female"
"4126","auntie",11441,207,198,4,1,487,"female",6.18826412308259,1.97171187074364,"female-real","female"
"4127","auntie",14799,213,187,4,0,1081,"male",6.98564181763921,1.77421783370956,"female-real","female"
"4128","auntie",11760,208,88,2,1,758,"female",6.63068338564237,-0.00322849959713342,"none","female"
"4129","auntie",5406,110,86,7,1,754,"male",6.62539236800796,-0.039136506330602,"female-real","female"
"4130","auntie",19366,308,158,7,1,665,"female",6.49978704065585,1.25355173607427,"female-real","female"
"4131","auntie",15862,302,134,4,1,576,"female",6.35610766069589,0.822655655272643,"male-real","female"
"4132","auntie",772,102,50,4,1,661,"male",6.49375383985169,-0.685480627533036,"male-real","female"
"4133","auntie",14113,212,129,7,1,888,"male",6.78897174299217,0.732885638438972,"male-real","female"
"4134","auntie",8894,203,93,2,1,618,"female",6.42648845745769,0.0865415172365379,"none","female"
"4135","auntie",773,102,50,4,1,661,"male",6.49375383985169,-0.685480627533036,"male-real","female"
"4136","auntie",4396,108,134,4,1,524,"female",6.26149168432104,0.822655655272643,"male-real","female"
"4137","auntie",23212,403,61,2,1,641,"female",6.46302945692067,-0.487986590498959,"none","female"
"4138","auntie",16889,304,93,2,1,798,"male",6.68210859744981,0.0865415172365379,"none","female"
"4139","auntie",27702,411,23,2,1,676,"male",6.51619307604296,-1.17023871843486,"none","female"
"4140","auntie",28199,412,4,4,1,857,"male",6.75343791859778,-1.51136478240281,"female-real","female"
"4141","auntie",8487,202,159,4,1,565,"male",6.33682573114644,1.271505739441,"female-real","female"
"4142","auntie",26077,408,49,2,1,594,"female",6.38687931936265,-0.70343463089977,"none","female"
"4143","auntie",22079,401,63,4,1,1085,"female",6.98933526597456,-0.45207858376549,"female-real","female"
"4144","auntie",25118,406,103,7,1,1314,"male",7.18083119904456,0.266081550903881,"male-real","female"
"4145","auntie",12075,209,21,2,1,814,"female",6.70196036600254,-1.20614672516833,"none","female"
"4146","auntie",15330,301,164,4,1,820,"female",6.7093043402583,1.36127575627467,"male-real","female"
"4147","auntie",20782,311,39,2,1,517,"male",6.24804287450843,-0.882974664567113,"none","female"
"4148","auntie",25716,407,123,7,1,647,"female",6.4723462945009,0.625161618238566,"male-real","female"
"4149","auntie",17902,306,56,7,1,830,"male",6.72142570079064,-0.57775660733263,"female-real","female"
"4150","auntie",20781,311,39,2,1,517,"male",6.24804287450843,-0.882974664567113,"none","female"
"4151","auntie",6448,112,53,2,0,516,"male",6.24610676548156,-0.631618617432833,"none","female"
"4152","auntie",4027,108,20,2,1,525,"female",6.26339826259162,-1.22410072853506,"none","female"
"4153","auntie",23768,404,50,2,1,501,"female",6.21660610108486,-0.685480627533036,"none","female"
"4154","auntie",28200,412,4,4,1,857,"male",6.75343791859778,-1.51136478240281,"female-real","female"
"4155","auntie",25117,406,103,7,1,1314,"male",7.18083119904456,0.266081550903881,"male-real","female"
"4156","auntie",18965,308,21,4,1,449,"female",6.10702288774225,-1.20614672516833,"male-real","female"
"4157","auntie",24511,405,96,2,1,480,"female",6.17378610390194,0.140403527336741,"none","female"
"4158","auntie",6951,113,39,2,1,1060,"male",6.96602418710611,-0.882974664567113,"none","female"
"4159","auntie",20449,310,100,4,1,404,"female",6.00141487796115,0.212219540803678,"male-real","female"
"4160","auntie",145,101,40,2,0,596,"female",6.39024066706535,-0.865020661200379,"none","female"
"4161","auntie",20218,310,48,2,1,699,"female",6.54965074223381,-0.721388634266504,"none","female"
"4162","auntie",5947,111,81,7,1,555,"female",6.31896811374643,-0.128906523164273,"female-real","female"
"4163","auntie",3609,107,70,4,0,619,"female",6.4281052726846,-0.32640056019835,"male-real","female"
"4164","auntie",20376,310,83,7,1,652,"female",6.48004456192665,-0.0929985164308048,"female-real","female"
"4165","auntie",15504,302,26,7,1,635,"female",6.45362499889269,-1.11637670833466,"female-real","female"
"4166","auntie",17904,306,56,7,1,830,"male",6.72142570079064,-0.57775660733263,"female-real","female"
"4167","auntie",9604,204,162,7,1,529,"female",6.2709884318583,1.3253677495412,"male-real","female"
"4168","auntie",7005,113,51,4,1,621,"male",6.43133108193348,-0.667526624166301,"male-real","female"
"4169","auntie",26076,408,47,7,0,854,"female",6.74993119378857,-0.739342637633239,"male-real","female"
"4170","auntie",17467,305,94,2,1,578,"female",6.35957386867238,0.104495520603272,"none","female"
"4171","auntie",9891,205,54,7,1,1014,"female",6.92165818415113,-0.613664614066099,"male-real","female"
"4172","auntie",11956,208,173,4,1,1153,"female",7.05012252026906,1.52286178657528,"female-real","female"
"4173","auntie",26075,408,47,7,0,854,"female",6.74993119378857,-0.739342637633239,"male-real","female"
"4174","auntie",23770,404,50,2,1,501,"female",6.21660610108486,-0.685480627533036,"none","female"
"4175","auntie",13529,211,119,7,1,696,"male",6.54534966033442,0.553345604771629,"male-real","female"
"4176","auntie",27090,410,10,2,1,471,"male",6.15485809401642,-1.40364076220241,"none","female"
"4177","auntie",20450,310,100,4,1,404,"female",6.00141487796115,0.212219540803678,"male-real","female"
"4178","auntie",17905,306,56,2,1,741,"male",6.60800062529609,-0.57775660733263,"none","female"
"4179","auntie",4028,108,20,2,1,525,"female",6.26339826259162,-1.22410072853506,"none","female"
"4180","auntie",18361,307,15,2,1,681,"male",6.52356230614951,-1.31387074536874,"none","female"
"4181","auntie",18223,306,165,4,1,636,"male",6.45519856334012,1.37922975964141,"male-real","female"
"4182","auntie",22691,402,75,2,1,668,"female",6.50428817353665,-0.236630543364679,"none","female"
"4183","auntie",16861,304,85,7,1,888,"male",6.78897174299217,-0.0570905096973362,"female-real","female"
"4184","auntie",9046,203,162,7,1,518,"female",6.24997524225948,1.3253677495412,"male-real","female"
"4185","auntie",1842,104,40,4,0,746,"female",6.61472560020376,-0.865020661200379,"male-real","female"
"4186","auntie",24513,405,96,2,1,480,"female",6.17378610390194,0.140403527336741,"none","female"
"4187","auntie",17583,305,143,7,1,557,"female",6.32256523992728,0.984241685573252,"female-real","female"
"4188","auntie",25715,407,123,7,1,647,"female",6.4723462945009,0.625161618238566,"male-real","female"
"4189","auntie",16196,303,56,2,1,561,"female",6.3297209055227,-0.57775660733263,"none","female"
"4190","auntie",20448,310,100,4,1,404,"female",6.00141487796115,0.212219540803678,"male-real","female"
"4191","auntie",2805,106,2,2,1,860,"female",6.75693238924755,-1.54727278913628,"none","female"
"4192","auntie",8895,203,93,2,1,618,"female",6.42648845745769,0.0865415172365379,"none","female"
"4193","auntie",3608,107,70,4,0,619,"female",6.4281052726846,-0.32640056019835,"male-real","female"
"4194","auntie",1460,103,98,2,1,609,"female",6.4118182677099,0.176311534070209,"none","female"
"4195","auntie",3482,107,33,2,1,616,"female",6.42324696353352,-0.990698684767518,"none","female"
"4196","auntie",7006,113,51,4,1,621,"male",6.43133108193348,-0.667526624166301,"male-real","female"
"4197","auntie",14800,213,187,4,0,1081,"male",6.98564181763921,1.77421783370956,"female-real","female"
"4198","auntie",6492,112,67,4,1,601,"male",6.39859493453521,-0.380262570298553,"male-real","female"
"4199","auntie",6693,112,144,7,1,569,"male",6.34388043412633,1.00219568893999,"female-real","female"
"4200","auntie",20780,311,39,2,1,517,"male",6.24804287450843,-0.882974664567113,"none","female"
"4201","auntie",16890,304,93,2,1,798,"male",6.68210859744981,0.0865415172365379,"none","female"
"4202","auntie",24174,405,3,4,1,722,"female",6.58202513889283,-1.52931878576955,"female-real","female"
"4203","auntie",23118,403,34,7,1,594,"female",6.38687931936265,-0.972744681400784,"male-real","female"
"4204","auntie",20010,309,178,4,1,715,"female",6.57228254269401,1.61263180340895,"male-real","female"
"4205","auntie",3610,107,70,4,0,619,"female",6.4281052726846,-0.32640056019835,"male-real","female"
"4206","auntie",12762,210,60,7,1,823,"male",6.71295620067707,-0.505940593865693,"male-real","female"
"4207","auntie",17906,306,56,2,1,741,"male",6.60800062529609,-0.57775660733263,"none","female"
"4208","auntie",6692,112,144,7,1,569,"male",6.34388043412633,1.00219568893999,"female-real","female"
"4209","auntie",26636,409,48,2,1,611,"female",6.4150969591716,-0.721388634266504,"none","female"
"4210","auntie",27091,410,10,2,1,471,"male",6.15485809401642,-1.40364076220241,"none","female"
"4211","auntie",8234,202,73,2,1,568,"male",6.34212141872115,-0.272538550098148,"none","female"
"4212","auntie",17609,305,157,4,1,768,"female",6.64378973314767,1.23559773270753,"male-real","female"
