"","Stimulus","X","Subject","Trial","Sex","Block","ACC","RT","RTlog","cTrial","condition","WordGender"
"212","agent",836,1,107,"female","7",1,486,6.18620862390049,0.479458373282563,"male-real","male"
"213","agent",23305,21,31,"female","4",1,614,6.419995,-0.9336723,"female-real","male"
"214","agent",5081,5,53,"female","2",1,708,6.56244409369372,-0.524608139011055,"none","male"
"215","agent",9210,8,190,"male","4",1,630,6.44571981938558,2.02274579032646,"male-real","male"
"216","agent",24606,22,52,"female","2",1,450,6.109248,-0.543202,"none","male"
"217","agent",29387,26,61,"male","7",0,986,6.893656,-0.3758575,"female-real","male"
"218","agent",9264,9,3,"male","7",1,711,6.56667242980324,-1.45429935409774,"male-real","male"
"219","agent",9209,8,190,"male","4",1,630,6.44571981938558,2.02274579032646,"male-real","male"
"220","agent",9990,9,91,"male","2",1,478,6.16961073249146,0.181957184454825,"none","male"
"221","agent",11970,11,52,"female","2",1,428,6.0591231955818,-0.543201963312788,"none","male"
"222","agent",9263,9,3,"male","7",1,711,6.56667242980324,-1.45429935409774,"male-real","male"
"223","agent",24605,22,52,"female","2",1,450,6.109248,-0.543202,"none","male"
"224","agent",24123,21,176,"female","7",1,374,5.924256,1.762432,"male-real","male"
"225","agent",21399,19,82,"female","7",1,891,6.792344,0.01461277,"male-real","male"
"226","agent",5213,5,70,"female","7",1,560,6.32793678372919,-0.208513125881582,"male-real","male"
"227","agent",18202,16,135,"female","4",0,940,6.84588,1.000085,"male-real","male"
"228","agent",11324,10,122,"female","4",0,574,6.35262939631957,0.758365737808568,"male-real","male"
"229","agent",11972,11,52,"female","2",1,428,6.0591231955818,-0.543201963312788,"none","male"
"230","agent",21397,19,82,"female","7",1,891,6.792344,0.01461277,"male-real","male"
"231","agent",3869,4,51,"male","7",1,826,6.71659477352098,-0.561795787614522,"female-real","male"
"232","agent",24607,22,52,"female","2",1,450,6.109248,-0.543202,"none","male"
"233","agent",24403,22,28,"female","7",1,642,6.464588,-0.9894537,"female-real","male"
"234","agent",11971,11,52,"female","2",1,428,6.0591231955818,-0.543201963312788,"none","male"
"235","agent",8083,7,186,"female","7",1,694,6.5424719605068,1.94837049311952,"male-real","male"
"236","agent",3868,4,51,"male","7",1,826,6.71659477352098,-0.561795787614522,"female-real","male"
"237","agent",24402,22,28,"female","7",1,642,6.464588,-0.9894537,"female-real","male"
"238","agent",25179,22,143,"female","4",1,739,6.605298,1.148836,"male-real","male"
"239","agent",5082,5,53,"female","2",1,708,6.56244409369372,-0.524608139011055,"none","male"
"240","agent",9265,9,3,"male","7",1,711,6.56667242980324,-1.45429935409774,"male-real","male"
"241","agent",5080,5,53,"female","2",1,708,6.56244409369372,-0.524608139011055,"none","male"
"242","agent",27133,24,76,"female","4",1,589,6.378426,-0.09695018,"male-real","male"
"243","agent",11323,10,122,"female","4",0,574,6.35262939631957,0.758365737808568,"male-real","male"
"244","agent",10437,10,5,"female","7",1,821,6.71052310945243,-1.41711170549427,"female-real","male"
"245","agent",15977,14,151,"female","7",1,583,6.36818718635049,1.29758664255884,"female-real","male"
"246","agent",17497,16,27,"female","7",1,584,6.369901,-1.008048,"female-real","male"
"247","agent",16314,15,22,"female","4",1,859,6.75576892198425,-1.1010166923648,"female-real","male"
"248","agent",15166,14,18,"female","2",1,535,6.28226674689601,-1.17539198957173,"none","male"
"249","agent",18203,16,135,"female","4",0,940,6.84588,1.000085,"male-real","male"
"250","agent",5212,5,70,"female","7",1,560,6.32793678372919,-0.208513125881582,"male-real","male"
"251","agent",3564,4,11,"male","2",1,585,6.37161184723186,-1.30554875968387,"none","male"
"252","agent",23307,21,31,"female","4",1,614,6.419995,-0.9336723,"female-real","male"
"253","agent",21273,19,67,"female","2",1,644,6.467699,-0.2642946,"none","male"
"254","agent",27132,24,76,"female","4",1,589,6.378426,-0.09695018,"male-real","male"
"255","agent",31883,28,92,"male","2",1,1416,7.255591,0.200551,"none","male"
"256","agent",12202,11,81,"female","4",1,646,6.4707995037826,-0.00398105856251214,"female-real","male"
"257","agent",835,1,107,"female","7",1,486,6.18620862390049,0.479458373282563,"male-real","male"
"258","agent",7770,7,97,"female","2",1,553,6.31535800152233,0.293520130265227,"none","male"
"259","agent",29627,26,91,"male","2",1,529,6.270988,0.1819572,"none","male"
"260","agent",17496,16,27,"female","7",1,584,6.369901,-1.008048,"female-real","male"
"261","agent",10439,10,5,"female","7",1,821,6.71052310945243,-1.41711170549427,"female-real","male"
"262","agent",29386,26,61,"male","7",0,986,6.893656,-0.3758575,"female-real","male"
"263","agent",16183,15,6,"female","2",1,1373,7.22475340576797,-1.39851788119254,"none","male"
"264","agent",24401,22,28,"female","7",1,642,6.464588,-0.9894537,"female-real","male"
"265","agent",8646,8,67,"male","2",1,439,6.08449941307517,-0.264294598786783,"none","male"
"266","agent",8645,8,67,"male","2",1,439,6.08449941307517,-0.264294598786783,"none","male"
"267","agent",30672,27,79,"female","2",1,654,6.483107,-0.04116871,"none","male"
"268","agent",4328,4,114,"male","4",1,773,6.65027904858742,0.609615143394699,"male-real","male"
"269","agent",26924,24,50,"female","7",1,638,6.458338,-0.5803896,"female-real","male"
"270","agent",23514,21,59,"female","2",1,731,6.594413,-0.4130452,"none","male"
"271","agent",6862,6,164,"female","7",0,587,6.3750248198281,1.53930635848138,"female-real","male"
"272","agent",16313,15,22,"female","4",1,859,6.75576892198425,-1.1010166923648,"female-real","male"
"273","agent",15976,14,151,"female","7",1,583,6.36818718635049,1.29758664255884,"female-real","male"
"274","agent",29388,26,61,"male","7",0,986,6.893656,-0.3758575,"female-real","male"
"275","agent",29629,26,91,"male","2",1,529,6.270988,0.1819572,"none","male"
"276","agent",27944,25,28,"female","2",1,579,6.361302,-0.9894537,"none","male"
"277","agent",24122,21,176,"female","7",1,374,5.924256,1.762432,"male-real","male"
"278","agent",609,1,77,"female","4",0,608,6.41017488196617,-0.0783563557694468,"female-real","male"
"279","agent",14454,13,71,"female","4",1,720,6.5792512120101,-0.189919301579849,"female-real","male"
"280","agent",9991,9,91,"male","2",1,478,6.16961073249146,0.181957184454825,"none","male"
"281","agent",30671,27,79,"female","2",1,654,6.483107,-0.04116871,"none","male"
"282","agent",26537,23,197,"female","7",1,573,6.350886,2.152903,"male-real","male"
"283","agent",28742,25,169,"female","7",1,715,6.572283,1.632275,"male-real","male"
"284","agent",16315,15,22,"female","4",1,859,6.75576892198425,-1.1010166923648,"female-real","male"
"285","agent",26538,23,197,"female","7",1,573,6.350886,2.152903,"male-real","male"
"286","agent",27134,24,76,"female","4",1,589,6.378426,-0.09695018,"male-real","male"
"287","agent",25178,22,143,"female","4",1,739,6.605298,1.148836,"male-real","male"
"288","agent",610,1,77,"female","4",0,608,6.41017488196617,-0.0783563557694468,"female-real","male"
"289","agent",31881,28,92,"male","2",1,1416,7.255591,0.200551,"none","male"
"290","agent",16022,14,165,"female","4",1,710,6.56526497003536,1.55790018278312,"male-real","male"
"291","agent",23306,21,31,"female","4",1,614,6.419995,-0.9336723,"female-real","male"
"292","agent",21398,19,82,"female","7",1,891,6.792344,0.01461277,"male-real","male"
"293","agent",12203,11,81,"female","4",1,646,6.4707995037826,-0.00398105856251214,"female-real","male"
"294","agent",22919,20,147,"female","7",1,705,6.558198,1.223211,"female-real","male"
"295","agent",25689,23,35,"female","2",1,435,6.075346,-0.859297,"none","male"
"296","agent",5716,5,174,"female","4",1,694,6.5424719605068,1.72524460149872,"female-real","male"
"297","agent",1992,2,104,"female","4",1,958,6.86484777797086,0.423676900377362,"male-real","male"
"298","agent",25690,23,35,"female","2",1,435,6.075346,-0.859297,"none","male"
"299","agent",23513,21,59,"female","2",1,731,6.594413,-0.4130452,"none","male"
"300","agent",19322,17,114,"male","4",1,649,6.475433,0.6096151,"female-real","male"
"301","agent",8084,7,186,"female","7",1,694,6.5424719605068,1.94837049311952,"male-real","male"
"302","agent",16182,15,6,"female","2",1,1373,7.22475340576797,-1.39851788119254,"none","male"
"303","agent",16181,15,6,"female","2",1,1373,7.22475340576797,-1.39851788119254,"none","male"
"304","agent",18608,17,23,"male","2",1,518,6.249975,-1.082423,"none","male"
"305","agent",10369,9,188,"male","4",1,654,6.4831073514572,1.98555814172299,"female-real","male"
"306","agent",3562,4,11,"male","2",1,585,6.37161184723186,-1.30554875968387,"none","male"
"307","agent",21272,19,67,"female","2",1,644,6.467699,-0.2642946,"none","male"
"308","agent",9989,9,91,"male","2",1,478,6.16961073249146,0.181957184454825,"none","male"
"309","agent",21271,19,67,"female","2",1,644,6.467699,-0.2642946,"none","male"
"310","agent",31882,28,92,"male","2",1,1416,7.255591,0.200551,"none","male"
"311","agent",19997,18,46,"female","4",1,649,6.475433,-0.6547649,"male-real","male"
"312","agent",22920,20,147,"female","7",1,705,6.558198,1.223211,"female-real","male"
"313","agent",29628,26,91,"male","2",1,529,6.270988,0.1819572,"none","male"
"314","agent",13238,12,68,"female","7",1,909,6.81234509417748,-0.24570077448505,"female-real","male"
"315","agent",20046,18,52,"female","2",1,558,6.324359,-0.543202,"none","male"
"316","agent",19321,17,114,"male","4",1,649,6.475433,0.6096151,"female-real","male"
"317","agent",27946,25,28,"female","2",1,579,6.361302,-0.9894537,"none","male"
"318","agent",3418,3,179,"female","4",1,1003,6.91075078796194,1.81821372300739,"female-real","male"
"319","agent",17996,16,89,"female","2",0,569,6.34388,0.1447695,"none","male"
"320","agent",18607,17,23,"male","2",1,518,6.249975,-1.082423,"none","male"
"321","agent",10370,9,188,"male","4",1,654,6.4831073514572,1.98555814172299,"female-real","male"
"322","agent",20537,18,125,"female","7",1,683,6.526495,0.8141472,"female-real","male"
"323","agent",19999,18,46,"female","4",1,649,6.475433,-0.6547649,"male-real","male"
"324","agent",10577,10,22,"female","2",1,453,6.11589212548303,-1.1010166923648,"none","male"
"325","agent",1991,2,104,"female","4",1,958,6.86484777797086,0.423676900377362,"male-real","male"
"326","agent",2424,3,12,"female","2",1,629,6.44413125670044,-1.28695493538214,"none","male"
"327","agent",22040,20,13,"female","2",1,535,6.282267,-1.268361,"none","male"
"328","agent",31070,27,166,"female","4",1,673,6.511745,1.576494,"female-real","male"
"329","agent",30670,27,79,"female","2",1,654,6.483107,-0.04116871,"none","male"
"330","agent",3419,3,179,"female","4",1,1003,6.91075078796194,1.81821372300739,"female-real","male"
"331","agent",18609,17,23,"male","2",1,518,6.249975,-1.082423,"none","male"
"332","agent",28749,25,171,"female","4",1,1141,7.03966,1.669463,"female-real","male"
"333","agent",21639,19,119,"female","4",1,423,6.047372,0.7025843,"female-real","male"
"334","agent",14453,13,71,"female","4",1,720,6.5792512120101,-0.189919301579849,"female-real","male"
"335","agent",25590,23,24,"female","4",1,652,6.480045,-1.063829,"female-real","male"
"336","agent",5715,5,174,"female","4",1,694,6.5424719605068,1.72524460149872,"female-real","male"
"337","agent",25688,23,35,"female","2",1,435,6.075346,-0.859297,"none","male"
"338","agent",1409,2,29,"female","2",1,752,6.62273632394984,-0.970859922252663,"none","male"
"339","agent",26923,24,50,"female","7",1,638,6.458338,-0.5803896,"female-real","male"
"340","agent",8647,8,67,"male","2",1,439,6.08449941307517,-0.264294598786783,"none","male"
"341","agent",15167,14,18,"female","2",1,535,6.28226674689601,-1.17539198957173,"none","male"
"342","agent",15168,14,18,"female","2",1,535,6.28226674689601,-1.17539198957173,"none","male"
"343","agent",3563,4,11,"male","2",1,585,6.37161184723186,-1.30554875968387,"none","male"
"344","agent",13240,12,68,"female","7",1,909,6.81234509417748,-0.24570077448505,"female-real","male"
"345","agent",17997,16,89,"female","2",0,569,6.34388,0.1447695,"none","male"
"346","agent",25589,23,24,"female","4",1,652,6.480045,-1.063829,"female-real","male"
"347","agent",31478,28,40,"male","7",1,1072,6.977281,-0.7663279,"female-real","male"
"348","agent",14452,13,71,"female","4",1,720,6.5792512120101,-0.189919301579849,"female-real","male"
"349","agent",8342,8,32,"male","7",1,1067,6.97260625130175,-0.915078449347462,"female-real","male"
"350","agent",28743,25,169,"female","7",1,715,6.572283,1.632275,"male-real","male"
"351","agent",31551,28,49,"male","4",0,1097,7.000334,-0.5989834,"male-real","male"
"352","agent",5916,6,15,"female","2",1,948,6.85435450225502,-1.23117346247693,"none","male"
"353","agent",10438,10,5,"female","7",1,821,6.71052310945243,-1.41711170549427,"female-real","male"
"354","agent",1410,2,29,"female","2",1,752,6.62273632394984,-0.970859922252663,"none","male"
"355","agent",17495,16,27,"female","7",1,584,6.369901,-1.008048,"female-real","male"
"356","agent",17995,16,89,"female","2",0,569,6.34388,0.1447695,"none","male"
"357","agent",21640,19,119,"female","4",1,423,6.047372,0.7025843,"female-real","male"
"358","agent",8343,8,32,"male","7",1,1067,6.97260625130175,-0.915078449347462,"female-real","male"
"359","agent",12528,11,141,"female","7",1,409,6.0137151560428,1.11164839954151,"male-real","male"
"360","agent",25591,23,24,"female","4",1,652,6.480045,-1.063829,"female-real","male"
"361","agent",21954,20,3,"female","4",1,1191,7.082549,-1.454299,"male-real","male"
"362","agent",22039,20,13,"female","2",1,535,6.282267,-1.268361,"none","male"
"363","agent",611,1,77,"female","4",0,608,6.41017488196617,-0.0783563557694468,"female-real","male"
"364","agent",31549,28,49,"male","4",0,1097,7.000334,-0.5989834,"male-real","male"
"365","agent",19146,17,86,"male","7",1,836,6.728629,0.08898806,"male-real","male"
"366","agent",7769,7,97,"female","2",1,553,6.31535800152233,0.293520130265227,"none","male"
"367","agent",31476,28,40,"male","7",1,1072,6.977281,-0.7663279,"female-real","male"
"368","agent",740,1,92,"female","2",1,468,6.14846829591765,0.200551008756558,"none","male"
"369","agent",7768,7,97,"female","2",1,553,6.31535800152233,0.293520130265227,"none","male"
"370","agent",20536,18,125,"female","7",1,683,6.526495,0.8141472,"female-real","male"
"371","agent",22038,20,13,"female","2",1,535,6.282267,-1.268361,"none","male"
"372","agent",27945,25,28,"female","2",1,579,6.361302,-0.9894537,"none","male"
"373","agent",31071,27,166,"female","4",1,673,6.511745,1.576494,"female-real","male"
"374","agent",21955,20,3,"female","4",1,1191,7.082549,-1.454299,"male-real","male"
"375","agent",1408,2,29,"female","2",1,752,6.62273632394984,-0.970859922252663,"none","male"
"376","agent",28994,26,17,"male","4",1,697,6.546785,-1.193986,"male-real","male"
"377","agent",6861,6,164,"female","7",0,587,6.3750248198281,1.53930635848138,"female-real","male"
"378","agent",28748,25,171,"female","4",1,1141,7.03966,1.669463,"female-real","male"
"379","agent",10579,10,22,"female","2",1,453,6.11589212548303,-1.1010166923648,"none","male"
"380","agent",19145,17,86,"male","7",1,836,6.728629,0.08898806,"male-real","male"
"381","agent",12527,11,141,"female","7",1,409,6.0137151560428,1.11164839954151,"male-real","male"
"382","agent",26922,24,50,"female","7",1,638,6.458338,-0.5803896,"female-real","male"
"383","agent",738,1,92,"female","2",1,468,6.14846829591765,0.200551008756558,"none","male"
"384","agent",13239,12,68,"female","7",1,909,6.81234509417748,-0.24570077448505,"female-real","male"
"385","agent",12201,11,81,"female","4",1,646,6.4707995037826,-0.00398105856251214,"female-real","male"
"386","agent",20047,18,52,"female","2",1,558,6.324359,-0.543202,"none","male"
"387","agent",31477,28,40,"male","7",1,1072,6.977281,-0.7663279,"female-real","male"
"388","agent",13569,12,118,"female","4",1,793,6.67582322163485,0.683990440601633,"male-real","male"
"389","agent",13982,13,15,"female","2",1,551,6.31173480915291,-1.23117346247693,"none","male"
"390","agent",5914,6,15,"female","2",1,948,6.85435450225502,-1.23117346247693,"none","male"
"391","agent",3246,3,130,"female","7",1,852,6.74758652682932,0.907116332222438,"male-real","male"
"392","agent",13981,13,15,"female","2",1,551,6.31173480915291,-1.23117346247693,"none","male"
"393","agent",19998,18,46,"female","4",1,649,6.475433,-0.6547649,"male-real","male"
"394","agent",26692,24,21,"female","2",1,587,6.375025,-1.119611,"none","male"
"395","agent",10578,10,22,"female","2",1,453,6.11589212548303,-1.1010166923648,"none","male"
"396","agent",26690,24,21,"female","2",1,587,6.375025,-1.119611,"none","male"
"397","agent",739,1,92,"female","2",1,468,6.14846829591765,0.200551008756558,"none","male"
"398","agent",13568,12,118,"female","4",1,793,6.67582322163485,0.683990440601633,"male-real","male"
"399","agent",5915,6,15,"female","2",1,948,6.85435450225502,-1.23117346247693,"none","male"
"400","agent",2422,3,12,"female","2",1,629,6.44413125670044,-1.28695493538214,"none","male"
"401","agent",31550,28,49,"male","4",0,1097,7.000334,-0.5989834,"male-real","male"
"402","agent",26691,24,21,"female","2",1,587,6.375025,-1.119611,"none","male"
"403","agent",4329,4,114,"male","4",1,773,6.65027904858742,0.609615143394699,"male-real","male"
"404","agent",3247,3,130,"female","7",1,852,6.74758652682932,0.907116332222438,"male-real","male"
"405","agent",28993,26,17,"male","4",1,697,6.546785,-1.193986,"male-real","male"
"406","agent",2423,3,12,"female","2",1,629,6.44413125670044,-1.28695493538214,"none","male"
"407","apprenticeship",23633,21,74,"female","2",1,620,6.429719,-0.1341378,"none","male"
"408","apprenticeship",16635,15,64,"female","2",1,634,6.45204895443723,-0.320076071691984,"none","male"
"409","apprenticeship",13420,12,90,"female","7",1,1175,7.06902342657826,0.163363360153091,"female-real","male"
"410","apprenticeship",5568,5,127,"female","7",1,849,6.74405918631135,0.851334859317237,"male-real","male"
"411","apprenticeship",23634,21,74,"female","2",1,620,6.429719,-0.1341378,"none","male"
"412","apprenticeship",27615,24,176,"female","4",1,659,6.490724,1.762432,"male-real","male"
"413","apprenticeship",18322,16,168,"female","7",1,641,6.463029,1.613682,"female-real","male"
"414","apprenticeship",11239,10,98,"female","2",0,454,6.11809719804135,0.31211395456696,"none","male"
"415","apprenticeship",6300,6,59,"female","7",1,689,6.53524127101366,-0.413045193200653,"female-real","male"
"416","apprenticeship",31776,28,79,"male","7",1,750,6.620073,-0.04116871,"female-real","male"
"417","apprenticeship",7754,7,96,"female","2",1,653,6.48157712927643,0.274926305963493,"none","male"
"418","apprenticeship",16634,15,64,"female","2",1,634,6.45204895443723,-0.320076071691984,"none","male"
"419","apprenticeship",12304,11,93,"female","2",1,623,6.43454651878745,0.219144833058292,"none","male"
"420","apprenticeship",20264,18,78,"female","2",1,589,6.378426,-0.05976253,"none","male"
"421","apprenticeship",16636,15,64,"female","2",1,634,6.45204895443723,-0.320076071691984,"none","male"
"422","apprenticeship",18883,17,57,"male","4",1,841,6.734592,-0.4502328,"female-real","male"
"423","apprenticeship",6299,6,59,"female","7",1,689,6.53524127101366,-0.413045193200653,"female-real","male"
"424","apprenticeship",18328,16,169,"female","4",1,1053,6.959399,1.632275,"male-real","male"
"425","apprenticeship",12539,11,144,"female","7",1,515,6.24416690066374,1.16742987244671,"male-real","male"
"426","apprenticeship",20266,18,78,"female","2",1,589,6.378426,-0.05976253,"none","male"
"427","apprenticeship",29695,26,101,"male","7",1,779,6.658011,0.3678954,"female-real","male"
"428","apprenticeship",21434,19,86,"female","2",1,539,6.289716,0.08898806,"none","male"
"429","apprenticeship",15728,14,91,"female","2",1,740,6.60665018619822,0.181957184454825,"none","male"
"430","apprenticeship",11321,10,122,"female","7",1,608,6.41017488196617,0.758365737808568,"female-real","male"
"431","apprenticeship",23632,21,74,"female","2",1,620,6.429719,-0.1341378,"none","male"
"432","apprenticeship",6302,6,60,"female","2",1,519,6.25190388316589,-0.394451368898919,"none","male"
"433","apprenticeship",27614,24,176,"female","4",1,659,6.490724,1.762432,"male-real","male"
"434","apprenticeship",11238,10,98,"female","2",0,454,6.11809719804135,0.31211395456696,"none","male"
"435","apprenticeship",22012,20,10,"female","2",1,483,6.180017,-1.324143,"none","male"
"436","apprenticeship",11237,10,98,"female","2",0,454,6.11809719804135,0.31211395456696,"none","male"
"437","apprenticeship",9551,9,38,"male","4",1,647,6.4723462945009,-0.80351550353706,"female-real","male"
"438","apprenticeship",24083,21,166,"female","4",1,734,6.598509,1.576494,"female-real","male"
"439","apprenticeship",20265,18,78,"female","2",1,589,6.378426,-0.05976253,"none","male"
"440","apprenticeship",27440,24,128,"female","7",1,644,6.467699,0.8699287,"female-real","male"
"441","apprenticeship",18885,17,57,"male","4",1,841,6.734592,-0.4502328,"female-real","male"
"442","apprenticeship",15726,14,91,"female","2",1,740,6.60665018619822,0.181957184454825,"none","male"
"443","apprenticeship",7755,7,96,"female","2",1,653,6.48157712927643,0.274926305963493,"none","male"
"444","apprenticeship",11444,10,158,"female","4",0,452,6.11368217983223,1.42774341267098,"male-real","male"
"445","apprenticeship",12622,11,167,"female","4",1,629,6.44413125670044,1.59508783138658,"female-real","male"
"446","apprenticeship",3567,4,11,"male","4",1,830,6.72142570079064,-1.30554875968387,"male-real","male"
"447","apprenticeship",18884,17,57,"male","4",1,841,6.734592,-0.4502328,"female-real","male"
"448","apprenticeship",6298,6,59,"female","7",1,689,6.53524127101366,-0.413045193200653,"female-real","male"
"449","apprenticeship",3566,4,11,"male","4",1,830,6.72142570079064,-1.30554875968387,"male-real","male"
"450","apprenticeship",21042,19,34,"female","4",1,703,6.555357,-0.8778908,"female-real","male"
"451","apprenticeship",22013,20,10,"female","2",1,483,6.180017,-1.324143,"none","male"
"452","apprenticeship",6301,6,60,"female","2",1,519,6.25190388316589,-0.394451368898919,"none","male"
"453","apprenticeship",22077,20,17,"female","7",1,811,6.698268,-1.193986,"female-real","male"
"454","apprenticeship",15727,14,91,"female","2",1,740,6.60665018619822,0.181957184454825,"none","male"
"455","apprenticeship",9082,8,154,"male","7",1,687,6.53233429222235,1.35336811546405,"female-real","male"
"456","apprenticeship",21435,19,86,"female","2",1,539,6.289716,0.08898806,"none","male"
"457","apprenticeship",9162,8,178,"male","4",1,687,6.53233429222235,1.79961989870565,"male-real","male"
"458","apprenticeship",13421,12,90,"female","7",1,1175,7.06902342657826,0.163363360153091,"female-real","male"
"459","apprenticeship",28924,26,9,"male","2",1,555,6.318968,-1.342736,"none","male"
"460","apprenticeship",6392,6,71,"female","4",1,411,6.01859321449623,-0.189919301579849,"male-real","male"
"461","apprenticeship",6393,6,71,"female","4",1,411,6.01859321449623,-0.189919301579849,"male-real","male"
"462","apprenticeship",20243,18,75,"female","7",1,731,6.594413,-0.115544,"female-real","male"
"463","apprenticeship",21041,19,34,"female","4",1,703,6.555357,-0.8778908,"female-real","male"
"464","apprenticeship",1928,2,94,"female","7",1,737,6.60258789218934,0.237738657360026,"female-real","male"
"465","apprenticeship",16430,15,37,"female","4",1,1158,7.05444965813294,-0.822109327838794,"female-real","male"
"466","apprenticeship",11322,10,122,"female","7",1,608,6.41017488196617,0.758365737808568,"female-real","male"
"467","apprenticeship",13935,13,9,"female","2",1,592,6.38350663488401,-1.34273640828734,"none","male"
"468","apprenticeship",18830,17,50,"male","2",1,526,6.265301,-0.5803896,"none","male"
"469","apprenticeship",21861,19,177,"female","7",1,663,6.496775,1.781026,"male-real","male"
"470","apprenticeship",13936,13,9,"female","2",1,592,6.38350663488401,-1.34273640828734,"none","male"
"471","apprenticeship",25681,23,34,"female","2",1,528,6.269096,-0.8778908,"none","male"
"472","apprenticeship",26844,24,41,"female","2",1,697,6.546785,-0.747734,"none","male"
"473","apprenticeship",31778,28,79,"male","7",1,750,6.620073,-0.04116871,"female-real","male"
"474","apprenticeship",12305,11,93,"female","2",1,623,6.43454651878745,0.219144833058292,"none","male"
"475","apprenticeship",11445,10,158,"female","4",0,452,6.11368217983223,1.42774341267098,"male-real","male"
"476","apprenticeship",22011,20,10,"female","2",1,483,6.180017,-1.324143,"none","male"
"477","apprenticeship",24082,21,166,"female","4",1,734,6.598509,1.576494,"female-real","male"
"478","apprenticeship",1927,2,94,"female","7",1,737,6.60258789218934,0.237738657360026,"female-real","male"
"479","apprenticeship",12303,11,93,"female","2",1,623,6.43454651878745,0.219144833058292,"none","male"
"480","apprenticeship",3565,4,11,"male","4",1,830,6.72142570079064,-1.30554875968387,"male-real","male"
"481","apprenticeship",31191,27,200,"female","4",1,1086,6.990257,2.208684,"female-real","male"
"482","apprenticeship",25674,23,33,"female","4",1,646,6.4708,-0.8964846,"female-real","male"
"483","apprenticeship",28926,26,9,"male","2",1,555,6.318968,-1.342736,"none","male"
"484","apprenticeship",23780,21,92,"female","7",1,518,6.249975,0.200551,"male-real","male"
"485","apprenticeship",5352,5,86,"female","2",1,681,6.52356230614951,0.0889880629461562,"none","male"
"486","apprenticeship",30531,27,61,"female","2",1,717,6.575076,-0.3758575,"none","male"
"487","apprenticeship",13045,12,45,"female","2",1,602,6.40025744530882,-0.673358733424924,"none","male"
"488","apprenticeship",31777,28,79,"male","7",1,750,6.620073,-0.04116871,"female-real","male"
"489","apprenticeship",25675,23,33,"female","4",1,646,6.4708,-0.8964846,"female-real","male"
"490","apprenticeship",7686,7,88,"female","7",1,649,6.47543271670409,0.126175711549624,"male-real","male"
"491","apprenticeship",1929,2,94,"female","7",1,737,6.60258789218934,0.237738657360026,"female-real","male"
"492","apprenticeship",7684,7,88,"female","7",1,649,6.47543271670409,0.126175711549624,"male-real","male"
"493","apprenticeship",7685,7,88,"female","7",1,649,6.47543271670409,0.126175711549624,"male-real","male"
"494","apprenticeship",25679,23,34,"female","2",1,528,6.269096,-0.8778908,"none","male"
"495","apprenticeship",314,1,41,"female","2",1,446,6.10031895202006,-0.747734030631859,"none","male"
"496","apprenticeship",25680,23,34,"female","2",1,528,6.269096,-0.8778908,"none","male"
"497","apprenticeship",207,1,29,"female","4",1,513,6.24027584517077,-0.970859922252663,"female-real","male"
"498","apprenticeship",13735,12,162,"female","4",1,882,6.78219205600679,1.50211870987791,"male-real","male"
"499","apprenticeship",30064,27,5,"female","7",1,704,6.556778,-1.417112,"male-real","male"
"500","apprenticeship",5596,5,136,"female","4",1,961,6.86797440897029,1.01867927803284,"female-real","male"
"501","apprenticeship",12540,11,144,"female","7",1,515,6.24416690066374,1.16742987244671,"male-real","male"
"502","apprenticeship",18329,16,169,"female","4",1,1053,6.959399,1.632275,"male-real","male"
"503","apprenticeship",13934,13,9,"female","2",1,592,6.38350663488401,-1.34273640828734,"none","male"
"504","apprenticeship",21433,19,86,"female","2",1,539,6.289716,0.08898806,"none","male"
"505","apprenticeship",3749,4,36,"male","7",1,670,6.50727771238501,-0.840703152140527,"female-real","male"
"506","apprenticeship",3748,4,36,"male","7",1,670,6.50727771238501,-0.840703152140527,"female-real","male"
"507","apprenticeship",29984,26,184,"male","4",1,670,6.507278,1.911183,"male-real","male"
"508","apprenticeship",7753,7,96,"female","2",1,653,6.48157712927643,0.274926305963493,"none","male"
"509","apprenticeship",208,1,29,"female","4",1,513,6.24027584517077,-0.970859922252663,"female-real","male"
"510","apprenticeship",13929,13,8,"female","7",1,753,6.62406522779989,-1.36133023258907,"male-real","male"
"511","apprenticeship",20534,18,124,"female","4",1,674,6.51323,0.7955534,"male-real","male"
"512","apprenticeship",13736,12,162,"female","4",1,882,6.78219205600679,1.50211870987791,"male-real","male"
"513","apprenticeship",9347,9,13,"male","2",0,524,6.26149168432104,-1.2683611110804,"none","male"
"514","apprenticeship",30533,27,61,"female","2",1,717,6.575076,-0.3758575,"none","male"
"515","apprenticeship",9348,9,13,"male","2",0,524,6.26149168432104,-1.2683611110804,"none","male"
"516","apprenticeship",13044,12,45,"female","2",1,602,6.40025744530882,-0.673358733424924,"none","male"
"517","apprenticeship",23781,21,92,"female","7",1,518,6.249975,0.200551,"male-real","male"
"518","apprenticeship",5567,5,127,"female","7",1,849,6.74405918631135,0.851334859317237,"male-real","male"
"519","apprenticeship",18323,16,168,"female","7",1,641,6.463029,1.613682,"female-real","male"
"520","apprenticeship",7094,7,15,"female","4",1,598,6.39359075395063,-1.23117346247693,"female-real","male"
"521","apprenticeship",9924,9,83,"male","7",1,521,6.25575004175337,0.0332065900409552,"male-real","male"
"522","apprenticeship",13930,13,8,"female","7",1,753,6.62406522779989,-1.36133023258907,"male-real","male"
"523","apprenticeship",31827,28,85,"male","2",1,881,6.781058,0.07039424,"none","male"
"524","apprenticeship",9923,9,83,"male","7",1,521,6.25575004175337,0.0332065900409552,"male-real","male"
"525","apprenticeship",27810,25,13,"female","4",1,718,6.57647,-1.268361,"female-real","male"
"526","apprenticeship",5597,5,136,"female","4",1,961,6.86797440897029,1.01867927803284,"female-real","male"
"527","apprenticeship",8789,8,85,"male","2",1,833,6.72503364216684,0.0703942386444225,"none","male"
"528","apprenticeship",17145,15,162,"female","7",1,1396,7.241366,1.502119,"male-real","male"
"529","apprenticeship",17146,15,162,"female","7",1,1396,7.241366,1.502119,"male-real","male"
"530","apprenticeship",25673,23,33,"female","4",1,646,6.4708,-0.8964846,"female-real","male"
"531","apprenticeship",3750,4,36,"male","7",1,670,6.50727771238501,-0.840703152140527,"female-real","male"
"532","apprenticeship",7093,7,15,"female","4",1,598,6.39359075395063,-1.23117346247693,"female-real","male"
"533","apprenticeship",22079,20,17,"female","7",1,811,6.698268,-1.193986,"female-real","male"
"534","apprenticeship",3985,4,65,"male","2",1,571,6.34738920965601,-0.301482247390251,"none","male"
"535","apprenticeship",23779,21,92,"female","7",1,518,6.249975,0.200551,"male-real","male"
"536","apprenticeship",1783,2,75,"female","2",1,784,6.66440902035041,-0.115544004372914,"none","male"
"537","apprenticeship",9553,9,38,"male","4",1,647,6.4723462945009,-0.80351550353706,"female-real","male"
"538","apprenticeship",17940,16,83,"female","2",1,502,6.2186,0.03320659,"none","male"
"539","apprenticeship",27809,25,13,"female","4",1,718,6.57647,-1.268361,"female-real","male"
"540","apprenticeship",5350,5,86,"female","2",1,681,6.52356230614951,0.0889880629461562,"none","male"
"541","apprenticeship",30532,27,61,"female","2",1,717,6.575076,-0.3758575,"none","male"
"542","apprenticeship",20244,18,75,"female","7",1,731,6.594413,-0.115544,"female-real","male"
"543","apprenticeship",21043,19,34,"female","4",1,703,6.555357,-0.8778908,"female-real","male"
"544","apprenticeship",1296,2,17,"female","4",1,582,6.36647044773144,-1.19398581387347,"male-real","male"
"545","apprenticeship",209,1,29,"female","4",1,513,6.24027584517077,-0.970859922252663,"female-real","male"
"546","apprenticeship",9925,9,83,"male","7",1,521,6.25575004175337,0.0332065900409552,"male-real","male"
"547","apprenticeship",25350,22,188,"female","4",1,573,6.350886,1.985558,"male-real","male"
"548","apprenticeship",5351,5,86,"female","2",1,681,6.52356230614951,0.0889880629461562,"none","male"
"549","apprenticeship",23047,20,184,"female","4",1,1110,7.012115,1.911183,"male-real","male"
"550","apprenticeship",14093,13,28,"female","4",1,652,6.48004456192665,-0.989453746554397,"female-real","male"
"551","apprenticeship",24991,22,98,"female","2",1,595,6.388561,0.312114,"none","male"
"552","apprenticeship",2499,3,23,"female","2",1,619,6.4281052726846,-1.08242286806306,"none","male"
"553","apprenticeship",6391,6,71,"female","4",1,411,6.01859321449623,-0.189919301579849,"male-real","male"
"554","apprenticeship",27811,25,13,"female","4",1,718,6.57647,-1.268361,"female-real","male"
"555","apprenticeship",28925,26,9,"male","2",1,555,6.318968,-1.342736,"none","male"
"556","apprenticeship",310,1,41,"female","7",1,610,6.41345895716736,-0.747734030631859,"male-real","male"
"557","apprenticeship",3984,4,65,"male","2",1,571,6.34738920965601,-0.301482247390251,"none","male"
"558","apprenticeship",3983,4,65,"male","2",1,571,6.34738920965601,-0.301482247390251,"none","male"
"559","apprenticeship",13043,12,45,"female","2",1,602,6.40025744530882,-0.673358733424924,"none","male"
"560","apprenticeship",9081,8,154,"male","7",1,687,6.53233429222235,1.35336811546405,"female-real","male"
"561","apprenticeship",25349,22,188,"female","4",1,573,6.350886,1.985558,"male-real","male"
"562","apprenticeship",26282,23,121,"female","7",1,608,6.410175,0.7397719,"male-real","male"
"563","apprenticeship",14092,13,28,"female","4",1,652,6.48004456192665,-0.989453746554397,"female-real","male"
"564","apprenticeship",24989,22,98,"female","2",1,595,6.388561,0.312114,"none","male"
"565","apprenticeship",1781,2,75,"female","2",1,784,6.66440902035041,-0.115544004372914,"none","male"
"566","apprenticeship",31829,28,85,"male","2",1,881,6.781058,0.07039424,"none","male"
"567","apprenticeship",3202,3,119,"female","4",1,1136,7.0352685992811,0.702584264903367,"female-real","male"
"568","apprenticeship",9349,9,13,"male","2",0,524,6.26149168432104,-1.2683611110804,"none","male"
"569","apprenticeship",9161,8,178,"male","4",1,687,6.53233429222235,1.79961989870565,"male-real","male"
"570","apprenticeship",8787,8,85,"male","2",1,833,6.72503364216684,0.0703942386444225,"none","male"
"571","apprenticeship",311,1,41,"female","7",1,610,6.41345895716736,-0.747734030631859,"male-real","male"
"572","apprenticeship",28683,25,151,"female","7",1,644,6.467699,1.297587,"male-real","male"
"573","apprenticeship",23046,20,184,"female","4",1,1110,7.012115,1.911183,"male-real","male"
"574","apprenticeship",1782,2,75,"female","2",1,784,6.66440902035041,-0.115544004372914,"none","male"
"575","apprenticeship",15746,14,93,"female","7",1,609,6.4118182677099,0.219144833058292,"female-real","male"
"576","apprenticeship",312,1,41,"female","2",1,446,6.10031895202006,-0.747734030631859,"none","male"
"577","apprenticeship",15744,14,93,"female","7",1,609,6.4118182677099,0.219144833058292,"female-real","male"
"578","apprenticeship",24990,22,98,"female","2",1,595,6.388561,0.312114,"none","male"
"579","apprenticeship",22078,20,17,"female","7",1,811,6.698268,-1.193986,"female-real","male"
"580","apprenticeship",28682,25,151,"female","7",1,644,6.467699,1.297587,"male-real","male"
"581","apprenticeship",1294,2,17,"female","4",1,582,6.36647044773144,-1.19398581387347,"male-real","male"
"582","apprenticeship",21862,19,177,"female","7",1,663,6.496775,1.781026,"male-real","male"
"583","apprenticeship",29694,26,101,"male","7",1,779,6.658011,0.3678954,"female-real","male"
"584","apprenticeship",17938,16,83,"female","2",1,502,6.2186,0.03320659,"none","male"
"585","apprenticeship",14091,13,28,"female","4",1,652,6.48004456192665,-0.989453746554397,"female-real","male"
"586","apprenticeship",1295,2,17,"female","4",1,582,6.36647044773144,-1.19398581387347,"male-real","male"
"587","apprenticeship",17939,16,83,"female","2",1,502,6.2186,0.03320659,"none","male"
"588","apprenticeship",26845,24,41,"female","2",1,697,6.546785,-0.747734,"none","male"
"589","apprenticeship",9552,9,38,"male","4",1,647,6.4723462945009,-0.80351550353706,"female-real","male"
"590","apprenticeship",28441,25,90,"female","2",1,687,6.532334,0.1633634,"none","male"
"591","apprenticeship",31828,28,85,"male","2",1,881,6.781058,0.07039424,"none","male"
"592","apprenticeship",26281,23,121,"female","7",1,608,6.410175,0.7397719,"male-real","male"
"593","apprenticeship",20535,18,124,"female","4",1,674,6.51323,0.7955534,"male-real","male"
"594","apprenticeship",6303,6,60,"female","2",1,519,6.25190388316589,-0.394451368898919,"none","male"
"595","apprenticeship",28442,25,90,"female","2",1,687,6.532334,0.1633634,"none","male"
"596","apprenticeship",313,1,41,"female","2",1,446,6.10031895202006,-0.747734030631859,"none","male"
"597","apprenticeship",2498,3,23,"female","2",1,619,6.4281052726846,-1.08242286806306,"none","male"
"598","apprenticeship",18831,17,50,"male","2",1,526,6.265301,-0.5803896,"none","male"
"599","apprenticeship",2500,3,23,"female","2",1,619,6.4281052726846,-1.08242286806306,"none","male"
"600","apprenticeship",8788,8,85,"male","2",1,833,6.72503364216684,0.0703942386444225,"none","male"
"601","apprenticeship",29696,26,101,"male","7",1,779,6.658011,0.3678954,"female-real","male"
"602","apprenticeship",18829,17,50,"male","2",1,526,6.265301,-0.5803896,"none","male"
"603","apprenticeship",25338,22,185,"female","7",1,595,6.388561,1.929777,"female-real","male"
"604","apprenticeship",28440,25,90,"female","2",1,687,6.532334,0.1633634,"none","male"
"605","apprenticeship",15745,14,93,"female","7",1,609,6.4118182677099,0.219144833058292,"female-real","male"
"606","apprenticeship",309,1,41,"female","7",1,610,6.41345895716736,-0.747734030631859,"male-real","male"
"607","apprenticeship",30063,27,5,"female","7",1,704,6.556778,-1.417112,"male-real","male"
"608","apprenticeship",30065,27,5,"female","7",1,704,6.556778,-1.417112,"male-real","male"
"609","apprenticeship",20245,18,75,"female","7",1,731,6.594413,-0.115544,"female-real","male"
"819","assistant",3549,4,9,"male","4",1,1161,7.05703698169789,-1.34273640828734,"male-real","female"
"820","assistant",10877,10,57,"female","4",0,563,6.33327962813969,-0.45023284180412,"male-real","female"
"821","assistant",17845,16,72,"female","2",1,465,6.142037,-0.1713255,"none","female"
"822","assistant",19096,17,80,"male","4",1,562,6.331502,-0.02257488,"female-real","female"
"823","assistant",31732,28,74,"male","7",1,663,6.496775,-0.1341378,"female-real","female"
"824","assistant",14772,13,121,"female","7",1,1041,6.94793706861497,0.739771913506835,"male-real","female"
"825","assistant",13754,12,167,"female","4",1,717,6.57507584059962,1.59508783138658,"male-real","female"
"826","assistant",8282,8,21,"male","2",1,614,6.41999492814714,-1.11961051666653,"none","female"
"827","assistant",19098,17,80,"male","4",1,562,6.331502,-0.02257488,"female-real","female"
"828","assistant",23766,21,90,"female","7",1,650,6.476972,0.1633634,"male-real","female"
"829","assistant",3220,3,124,"female","4",1,504,6.22257626807137,0.795553386412036,"female-real","female"
"830","assistant",521,1,66,"female","2",1,377,5.93224518744801,-0.282888423088517,"none","female"
"831","assistant",14613,13,90,"female","2",1,673,6.51174532964473,0.163363360153091,"none","female"
"832","assistant",10879,10,57,"female","4",0,563,6.33327962813969,-0.45023284180412,"male-real","female"
"833","assistant",7676,7,87,"female","7",1,695,6.54391184556479,0.10758188724789,"male-real","female"
"834","assistant",8780,8,84,"male","4",1,494,6.20253551718792,0.0518004143426889,"male-real","female"
"835","assistant",3547,4,9,"male","4",1,1161,7.05703698169789,-1.34273640828734,"male-real","female"
"836","assistant",7717,7,92,"female","2",1,534,6.2803958389602,0.200551008756558,"none","female"
"837","assistant",14614,13,90,"female","2",1,673,6.51174532964473,0.163363360153091,"none","female"
"838","assistant",5121,5,58,"female","2",1,691,6.53813982376767,-0.431639017502386,"none","female"
"839","assistant",23765,21,90,"female","7",1,650,6.476972,0.1633634,"male-real","female"
"840","assistant",7675,7,87,"female","7",1,695,6.54391184556479,0.10758188724789,"male-real","female"
"841","assistant",13753,12,167,"female","4",1,717,6.57507584059962,1.59508783138658,"male-real","female"
"842","assistant",10878,10,57,"female","4",0,563,6.33327962813969,-0.45023284180412,"male-real","female"
"843","assistant",20044,18,52,"female","4",1,603,6.401917,-0.543202,"male-real","female"
"844","assistant",20045,18,52,"female","4",1,603,6.401917,-0.543202,"male-real","female"
"845","assistant",29499,26,74,"male","7",1,615,6.421622,-0.1341378,"female-real","female"
"846","assistant",8371,8,35,"male","7",1,878,6.77764659363512,-0.859296976442261,"female-real","female"
"847","assistant",3548,4,9,"male","4",1,1161,7.05703698169789,-1.34273640828734,"male-real","female"
"848","assistant",2570,3,32,"female","2",1,670,6.50727771238501,-0.915078449347462,"none","female"
"849","assistant",21897,19,188,"female","7",1,563,6.33328,1.985558,"male-real","female"
"850","assistant",19097,17,80,"male","4",1,562,6.331502,-0.02257488,"female-real","female"
"851","assistant",19458,17,153,"male","7",1,661,6.493754,1.334774,"male-real","female"
"852","assistant",30423,27,48,"female","2",1,838,6.731018,-0.6175773,"none","female"
"853","assistant",17177,15,171,"female","7",1,1340,7.200425,1.669463,"male-real","female"
"854","assistant",21957,20,3,"female","2",1,944,6.850126,-1.454299,"none","female"
"855","assistant",29902,26,162,"male","4",1,678,6.519147,1.502119,"male-real","female"
"856","assistant",3221,3,124,"female","4",1,504,6.22257626807137,0.795553386412036,"female-real","female"
"857","assistant",15302,14,36,"female","7",1,686,6.53087762772588,-0.840703152140527,"female-real","female"
"858","assistant",8779,8,84,"male","4",1,494,6.20253551718792,0.0518004143426889,"male-real","female"
"859","assistant",27935,25,27,"female","7",1,839,6.732211,-1.008048,"male-real","female"
"860","assistant",520,1,66,"female","2",1,377,5.93224518744801,-0.282888423088517,"none","female"
"861","assistant",18324,16,168,"female","4",0,367,5.905362,1.613682,"male-real","female"
"862","assistant",30975,27,134,"female","7",1,847,6.741701,0.9814916,"male-real","female"
"863","assistant",25373,22,196,"female","4",0,733,6.597146,2.134309,"male-real","female"
"864","assistant",29498,26,74,"male","7",1,615,6.421622,-0.1341378,"female-real","female"
"865","assistant",12731,11,199,"female","7",1,726,6.5875500148248,2.19009020904206,"male-real","female"
"866","assistant",2571,3,32,"female","2",1,670,6.50727771238501,-0.915078449347462,"none","female"
"867","assistant",7269,7,35,"female","4",1,581,6.36475075685191,-0.859296976442261,"female-real","female"
"868","assistant",20434,18,99,"female","2",1,529,6.270988,0.3307078,"none","female"
"869","assistant",31272,28,12,"male","2",0,543,6.297109,-1.286955,"none","female"
"870","assistant",8281,8,21,"male","2",1,614,6.41999492814714,-1.11961051666653,"none","female"
"871","assistant",15301,14,36,"female","7",1,686,6.53087762772588,-0.840703152140527,"female-real","female"
"872","assistant",15303,14,36,"female","7",1,686,6.53087762772588,-0.840703152140527,"female-real","female"
"873","assistant",519,1,66,"female","2",1,377,5.93224518744801,-0.282888423088517,"none","female"
"874","assistant",30974,27,134,"female","7",1,847,6.741701,0.9814916,"male-real","female"
"875","assistant",11672,11,13,"female","4",1,766,6.64118216974059,-1.2683611110804,"female-real","female"
"876","assistant",1106,1,183,"female","4",1,480,6.17378610390194,1.89258902021432,"female-real","female"
"877","assistant",21366,19,78,"female","4",1,500,6.214608,-0.05976253,"female-real","female"
"878","assistant",21030,19,33,"female","2",1,534,6.280396,-0.8964846,"none","female"
"879","assistant",26258,23,113,"female","4",1,762,6.635947,0.5910213,"female-real","female"
"880","assistant",30424,27,48,"female","2",1,838,6.731018,-0.6175773,"none","female"
"881","assistant",11586,10,196,"female","7",1,587,6.3750248198281,2.13430873613686,"female-real","female"
"882","assistant",11685,11,14,"female","2",1,570,6.3456363608286,-1.24976728677867,"none","female"
"883","assistant",9760,9,62,"male","4",1,465,6.14203740558736,-0.357263720295452,"female-real","female"
"884","assistant",17846,16,72,"female","2",1,465,6.142037,-0.1713255,"none","female"
"885","assistant",17847,16,72,"female","2",1,465,6.142037,-0.1713255,"none","female"
"886","assistant",15294,14,35,"female","2",1,739,6.6052979209482,-0.859296976442261,"none","female"
"887","assistant",22217,20,33,"female","7",1,747,6.616065,-0.8964846,"female-real","female"
"888","assistant",23819,21,96,"female","2",1,559,6.326149,0.2749263,"none","female"
"889","assistant",18325,16,168,"female","4",0,367,5.905362,1.613682,"male-real","female"
"890","assistant",19457,17,153,"male","7",1,661,6.493754,1.334774,"male-real","female"
"891","assistant",20436,18,99,"female","2",1,529,6.270988,0.3307078,"none","female"
"892","assistant",5120,5,58,"female","2",1,691,6.53813982376767,-0.431639017502386,"none","female"
"893","assistant",23259,21,25,"female","4",1,659,6.490724,-1.045235,"female-real","female"
"894","assistant",29213,26,41,"male","2",1,495,6.204558,-0.747734,"none","female"
"895","assistant",1173,2,1,"female","2",1,1014,6.92165818415113,-1.49148700270121,"none","female"
"896","assistant",7270,7,35,"female","4",1,581,6.36475075685191,-0.859296976442261,"female-real","female"
"897","assistant",21029,19,33,"female","2",1,534,6.280396,-0.8964846,"none","female"
"898","assistant",30986,27,139,"female","4",1,573,6.350886,1.074461,"female-real","female"
"899","assistant",14773,13,121,"female","7",1,1041,6.94793706861497,0.739771913506835,"male-real","female"
"900","assistant",5964,6,21,"female","2",1,657,6.48768401848461,-1.11961051666653,"none","female"
"901","assistant",23818,21,96,"female","2",1,559,6.326149,0.2749263,"none","female"
"902","assistant",5963,6,21,"female","2",1,657,6.48768401848461,-1.11961051666653,"none","female"
"903","assistant",16146,15,2,"female","2",1,777,6.65544035036765,-1.47289317839947,"none","female"
"904","assistant",1174,2,1,"female","7",1,856,6.75227037614174,-1.49148700270121,"female-real","female"
"905","assistant",405,1,53,"female","7",1,460,6.13122648948314,-0.524608139011055,"male-real","female"
"906","assistant",407,1,53,"female","7",1,460,6.13122648948314,-0.524608139011055,"male-real","female"
"907","assistant",25071,22,116,"female","7",1,736,6.60123,0.6468028,"female-real","female"
"908","assistant",5552,5,122,"female","7",1,604,6.40357419793482,0.758365737808568,"male-real","female"
"909","assistant",11585,10,196,"female","7",1,587,6.3750248198281,2.13430873613686,"female-real","female"
"910","assistant",1788,2,76,"female","4",1,577,6.3578422665081,-0.0969501800711805,"male-real","female"
"911","assistant",21031,19,33,"female","2",1,534,6.280396,-0.8964846,"none","female"
"912","assistant",15293,14,35,"female","2",1,739,6.6052979209482,-0.859296976442261,"none","female"
"913","assistant",18960,17,65,"male","2",1,731,6.594413,-0.3014822,"none","female"
"914","assistant",27936,25,27,"female","7",1,839,6.732211,-1.008048,"male-real","female"
"915","assistant",32192,28,171,"male","4",1,1001,6.908755,1.669463,"male-real","female"
"916","assistant",23820,21,96,"female","2",1,559,6.326149,0.2749263,"none","female"
"917","assistant",28767,25,176,"female","4",1,528,6.269096,1.762432,"female-real","female"
"918","assistant",2572,3,32,"female","2",1,670,6.50727771238501,-0.915078449347462,"none","female"
"919","assistant",4066,4,75,"male","2",1,608,6.41017488196617,-0.115544004372914,"none","female"
"920","assistant",10867,10,55,"female","2",1,627,6.44094654063292,-0.487420490407588,"none","female"
"921","assistant",21364,19,78,"female","4",1,500,6.214608,-0.05976253,"female-real","female"
"922","assistant",12730,11,199,"female","7",1,726,6.5875500148248,2.19009020904206,"male-real","female"
"923","assistant",25964,23,68,"female","7",1,685,6.529419,-0.2457008,"male-real","female"
"924","assistant",6732,6,129,"female","7",1,659,6.49072353450251,0.888522507920704,"female-real","female"
"925","assistant",11671,11,13,"female","4",1,766,6.64118216974059,-1.2683611110804,"female-real","female"
"926","assistant",11670,11,13,"female","4",1,766,6.64118216974059,-1.2683611110804,"female-real","female"
"927","assistant",7677,7,87,"female","7",1,695,6.54391184556479,0.10758188724789,"male-real","female"
"928","assistant",27937,25,27,"female","7",1,839,6.732211,-1.008048,"male-real","female"
"929","assistant",27582,24,167,"female","7",1,584,6.369901,1.595088,"female-real","female"
"930","assistant",1789,2,76,"female","4",1,577,6.3578422665081,-0.0969501800711805,"male-real","female"
"931","assistant",406,1,53,"female","7",1,460,6.13122648948314,-0.524608139011055,"male-real","female"
"932","assistant",22216,20,33,"female","7",1,747,6.616065,-0.8964846,"female-real","female"
"933","assistant",11686,11,14,"female","2",1,570,6.3456363608286,-1.24976728677867,"none","female"
"934","assistant",25070,22,116,"female","7",1,736,6.60123,0.6468028,"female-real","female"
"935","assistant",27865,25,19,"female","2",1,632,6.448889,-1.156798,"none","female"
"936","assistant",22215,20,33,"female","7",1,747,6.616065,-0.8964846,"female-real","female"
"937","assistant",27863,25,19,"female","2",1,632,6.448889,-1.156798,"none","female"
"938","assistant",18958,17,65,"male","2",1,731,6.594413,-0.3014822,"none","female"
"939","assistant",18959,17,65,"male","2",1,731,6.594413,-0.3014822,"none","female"
"940","assistant",27583,24,167,"female","7",1,584,6.369901,1.595088,"female-real","female"
"941","assistant",6161,6,43,"female","4",1,536,6.2841341610708,-0.710546382028391,"male-real","female"
"942","assistant",4415,4,140,"male","7",0,936,6.84161547647759,1.09305457523977,"female-real","female"
"943","assistant",5962,6,21,"female","2",1,657,6.48768401848461,-1.11961051666653,"none","female"
"944","assistant",8370,8,35,"male","7",1,878,6.77764659363512,-0.859296976442261,"female-real","female"
"945","assistant",9917,9,81,"male","2",1,722,6.58202513889283,-0.00398105856251214,"none","female"
"946","assistant",21365,19,78,"female","4",1,500,6.214608,-0.05976253,"female-real","female"
"947","assistant",5087,5,53,"female","4",1,564,6.33505425149806,-0.524608139011055,"female-real","female"
"948","assistant",10866,10,55,"female","2",1,627,6.44094654063292,-0.487420490407588,"none","female"
"949","assistant",27864,25,19,"female","2",1,632,6.448889,-1.156798,"none","female"
"950","assistant",23257,21,25,"female","4",1,659,6.490724,-1.045235,"female-real","female"
"951","assistant",29903,26,162,"male","4",1,678,6.519147,1.502119,"male-real","female"
"952","assistant",1787,2,76,"female","4",1,577,6.3578422665081,-0.0969501800711805,"male-real","female"
"953","assistant",17178,15,171,"female","7",1,1340,7.200425,1.669463,"male-real","female"
"954","assistant",4065,4,75,"male","2",1,608,6.41017488196617,-0.115544004372914,"none","female"
"955","assistant",26564,24,3,"female","2",1,497,6.20859,-1.454299,"none","female"
"956","assistant",18304,16,161,"female","7",1,558,6.324359,1.483525,"female-real","female"
"957","assistant",4414,4,140,"male","7",0,936,6.84161547647759,1.09305457523977,"female-real","female"
"958","assistant",29497,26,74,"male","7",1,615,6.421622,-0.1341378,"female-real","female"
"959","assistant",23764,21,90,"female","7",1,650,6.476972,0.1633634,"male-real","female"
"960","assistant",12736,12,1,"female","2",1,1189,7.08086789669078,-1.49148700270121,"none","female"
"961","assistant",7268,7,35,"female","4",1,581,6.36475075685191,-0.859296976442261,"female-real","female"
"962","assistant",10865,10,55,"female","2",1,627,6.44094654063292,-0.487420490407588,"none","female"
"963","assistant",30425,27,48,"female","2",1,838,6.731018,-0.6175773,"none","female"
"964","assistant",24959,22,94,"female","2",1,524,6.261492,0.2377387,"none","female"
"965","assistant",17063,15,139,"female","4",0,849,6.744059,1.074461,"female-real","female"
"966","assistant",30985,27,139,"female","4",1,573,6.350886,1.074461,"female-real","female"
"967","assistant",25962,23,68,"female","7",1,685,6.529419,-0.2457008,"male-real","female"
"968","assistant",6160,6,43,"female","4",1,536,6.2841341610708,-0.710546382028391,"male-real","female"
"969","assistant",26566,24,3,"female","2",1,497,6.20859,-1.454299,"none","female"
"970","assistant",9919,9,81,"male","2",1,722,6.58202513889283,-0.00398105856251214,"none","female"
"971","assistant",26215,23,99,"female","2",1,746,6.614726,0.3307078,"none","female"
"972","assistant",31273,28,12,"male","2",0,543,6.297109,-1.286955,"none","female"
"973","assistant",31733,28,74,"male","7",1,663,6.496775,-0.1341378,"female-real","female"
"974","assistant",7718,7,92,"female","2",1,534,6.2803958389602,0.200551008756558,"none","female"
"975","assistant",5086,5,53,"female","4",1,564,6.33505425149806,-0.524608139011055,"female-real","female"
"976","assistant",8369,8,35,"male","7",1,878,6.77764659363512,-0.859296976442261,"female-real","female"
"977","assistant",24961,22,94,"female","2",1,524,6.261492,0.2377387,"none","female"
"978","assistant",9683,9,53,"male","7",1,510,6.23441072571837,-0.524608139011055,"male-real","female"
"979","assistant",25963,23,68,"female","7",1,685,6.529419,-0.2457008,"male-real","female"
"980","assistant",9685,9,53,"male","7",1,510,6.23441072571837,-0.524608139011055,"male-real","female"
"981","assistant",5553,5,122,"female","7",1,604,6.40357419793482,0.758365737808568,"male-real","female"
"982","assistant",14907,13,162,"female","4",1,737,6.60258789218934,1.50211870987791,"female-real","female"
"983","assistant",26565,24,3,"female","2",1,497,6.20859,-1.454299,"none","female"
"984","assistant",29212,26,41,"male","2",1,495,6.204558,-0.747734,"none","female"
"985","assistant",12737,12,1,"female","7",1,1039,6.94601399109923,-1.49148700270121,"female-real","female"
"986","assistant",16145,15,2,"female","2",1,777,6.65544035036765,-1.47289317839947,"none","female"
"987","assistant",7719,7,92,"female","2",1,534,6.2803958389602,0.200551008756558,"none","female"
"988","assistant",9759,9,62,"male","4",1,465,6.14203740558736,-0.357263720295452,"female-real","female"
"989","assistant",11687,11,14,"female","2",1,570,6.3456363608286,-1.24976728677867,"none","female"
"990","assistant",29214,26,41,"male","2",1,495,6.204558,-0.747734,"none","female"
"991","assistant",21956,20,3,"female","2",1,944,6.850126,-1.454299,"none","female"
"992","assistant",1105,1,183,"female","4",1,480,6.17378610390194,1.89258902021432,"female-real","female"
"993","assistant",24960,22,94,"female","2",1,524,6.261492,0.2377387,"none","female"
"994","assistant",9684,9,53,"male","7",1,510,6.23441072571837,-0.524608139011055,"male-real","female"
"995","assistant",26257,23,113,"female","4",1,762,6.635947,0.5910213,"female-real","female"
"996","assistant",31274,28,12,"male","2",0,543,6.297109,-1.286955,"none","female"
"997","assistant",9918,9,81,"male","2",1,722,6.58202513889283,-0.00398105856251214,"none","female"
"998","assistant",5088,5,53,"female","4",1,564,6.33505425149806,-0.524608139011055,"female-real","female"
"999","assistant",15638,14,79,"female","4",1,680,6.52209279817015,-0.0411687071659795,"male-real","female"
"1000","assistant",6162,6,43,"female","4",1,536,6.2841341610708,-0.710546382028391,"male-real","female"
"1001","assistant",26214,23,99,"female","2",1,746,6.614726,0.3307078,"none","female"
"1002","assistant",16147,15,2,"female","2",1,777,6.65544035036765,-1.47289317839947,"none","female"
"1003","assistant",26213,23,99,"female","2",1,746,6.614726,0.3307078,"none","female"
"1004","assistant",6731,6,129,"female","7",1,659,6.49072353450251,0.888522507920704,"female-real","female"
"1005","assistant",23258,21,25,"female","4",1,659,6.490724,-1.045235,"female-real","female"
"1006","assistant",20435,18,99,"female","2",1,529,6.270988,0.3307078,"none","female"
"1007","assistant",15637,14,79,"female","4",1,680,6.52209279817015,-0.0411687071659795,"male-real","female"
"1008","auntie",28728,25,166,"female","7",1,527,6.267201,1.576494,"male-real","female"
"1009","auntie",9294,9,7,"male","2",1,532,6.27664348934164,-1.3799240568908,"none","female"
"1010","auntie",29320,26,53,"male","7",1,720,6.579251,-0.5246081,"female-real","female"
"1011","auntie",18326,16,169,"female","7",1,463,6.137727,1.632275,"female-real","female"
"1012","auntie",26958,24,55,"female","2",1,608,6.410175,-0.4874205,"none","female"
"1013","auntie",4072,4,76,"male","4",0,846,6.74051935960622,-0.0969501800711805,"male-real","female"
"1014","auntie",22285,20,40,"female","7",1,917,6.821107,-0.7663279,"female-real","female"
"1015","auntie",24119,21,175,"female","7",1,645,6.46925,1.743838,"male-real","female"
"1016","auntie",15663,14,82,"female","2",1,561,6.3297209055227,0.0146127657392215,"none","female"
"1017","auntie",10689,10,36,"female","7",1,545,6.30078579466324,-0.840703152140527,"female-real","female"
"1018","auntie",5210,5,69,"female","4",1,965,6.87212810133899,-0.227106950183316,"female-real","female"
"1019","auntie",9697,9,55,"male","4",1,606,6.40687998606931,-0.487420490407588,"female-real","female"
"1020","auntie",5209,5,69,"female","4",1,965,6.87212810133899,-0.227106950183316,"female-real","female"
"1021","auntie",25575,23,22,"female","2",1,596,6.390241,-1.101017,"none","female"
"1022","auntie",30734,27,87,"female","2",1,563,6.33328,0.1075819,"none","female"
"1023","auntie",4070,4,76,"male","4",0,846,6.74051935960622,-0.0969501800711805,"male-real","female"
"1024","auntie",7151,7,22,"female","2",1,668,6.50428817353665,-1.1010166923648,"none","female"
"1025","auntie",22284,20,40,"female","7",1,917,6.821107,-0.7663279,"female-real","female"
"1026","auntie",12868,12,19,"female","2",1,602,6.40025744530882,-1.15679816527,"none","female"
"1027","auntie",6754,6,134,"female","7",1,502,6.21860011969173,0.981491629429372,"female-real","female"
"1028","auntie",5827,6,4,"female","2",1,642,6.46458830368996,-1.435705529796,"none","female"
"1029","auntie",9295,9,7,"male","2",1,532,6.27664348934164,-1.3799240568908,"none","female"
"1030","auntie",28729,25,166,"female","7",1,527,6.267201,1.576494,"male-real","female"
"1031","auntie",24118,21,175,"female","7",1,645,6.46925,1.743838,"male-real","female"
"1032","auntie",6360,6,67,"female","4",1,786,6.66695679242921,-0.264294598786783,"male-real","female"
"1033","auntie",846,1,111,"female","4",1,589,6.37842618365159,0.553833670489498,"female-real","female"
"1034","auntie",21245,19,64,"female","2",1,451,6.111467,-0.3200761,"none","female"
"1035","auntie",21795,19,160,"female","7",1,573,6.350886,1.464931,"male-real","female"
"1036","auntie",4387,4,132,"male","7",1,930,6.8351845861473,0.944303980825905,"female-real","female"
"1037","auntie",17726,16,54,"female","2",1,547,6.304449,-0.5060143,"none","female"
"1038","auntie",5211,5,69,"female","4",1,965,6.87212810133899,-0.227106950183316,"female-real","female"
"1039","auntie",25576,23,22,"female","2",1,596,6.390241,-1.101017,"none","female"
"1040","auntie",21244,19,64,"female","2",1,451,6.111467,-0.3200761,"none","female"
"1041","auntie",21246,19,64,"female","2",1,451,6.111467,-0.3200761,"none","female"
"1042","auntie",13034,12,44,"female","7",1,924,6.82871207164168,-0.691952557726658,"female-real","female"
"1043","auntie",18327,16,169,"female","7",1,463,6.137727,1.632275,"female-real","female"
"1044","auntie",24242,22,5,"female","2",1,507,6.228511,-1.417112,"none","female"
"1045","auntie",12448,11,120,"female","4",1,560,6.32793678372919,0.721178089205101,"female-real","female"
"1046","auntie",22286,20,40,"female","7",1,917,6.821107,-0.7663279,"female-real","female"
"1047","auntie",25626,23,28,"female","7",1,882,6.782192,-0.9894537,"male-real","female"
"1048","auntie",24964,22,95,"female","4",1,538,6.287859,0.2563325,"male-real","female"
"1049","auntie",7150,7,22,"female","2",1,668,6.50428817353665,-1.1010166923648,"none","female"
"1050","auntie",20405,18,95,"female","4",0,697,6.546785,0.2563325,"male-real","female"
"1051","auntie",19552,17,183,"male","4",1,667,6.50279,1.892589,"female-real","female"
"1052","auntie",9696,9,55,"male","4",1,606,6.40687998606931,-0.487420490407588,"female-real","female"
"1053","auntie",29322,26,53,"male","7",1,720,6.579251,-0.5246081,"female-real","female"
"1054","auntie",3065,3,92,"female","7",1,816,6.70441435496411,0.200551008756558,"male-real","female"
"1055","auntie",25206,22,150,"female","7",1,519,6.251904,1.278993,"female-real","female"
"1056","auntie",24241,22,5,"female","2",1,507,6.228511,-1.417112,"none","female"
"1057","auntie",10688,10,36,"female","7",1,545,6.30078579466324,-0.840703152140527,"female-real","female"
"1058","auntie",25574,23,22,"female","2",1,596,6.390241,-1.101017,"none","female"
"1059","auntie",21770,19,152,"female","4",1,589,6.378426,1.31618,"female-real","female"
"1060","auntie",4386,4,132,"male","7",1,930,6.8351845861473,0.944303980825905,"female-real","female"
"1061","auntie",19551,17,183,"male","4",1,667,6.50279,1.892589,"female-real","female"
"1062","auntie",608,1,77,"female","7",1,390,5.96614673912369,-0.0783563557694468,"male-real","female"
"1063","auntie",29398,26,63,"male","2",1,522,6.257668,-0.3386699,"none","female"
"1064","auntie",7399,7,52,"female","7",0,685,6.52941883826223,-0.543201963312788,"male-real","female"
"1065","auntie",7401,7,52,"female","7",0,685,6.52941883826223,-0.543201963312788,"male-real","female"
"1066","auntie",23673,21,79,"female","2",1,570,6.345636,-0.04116871,"none","female"
"1067","auntie",18844,17,52,"male","2",1,544,6.298949,-0.543202,"none","female"
"1068","auntie",29321,26,53,"male","7",1,720,6.579251,-0.5246081,"female-real","female"
"1069","auntie",25207,22,150,"female","7",1,519,6.251904,1.278993,"female-real","female"
"1070","auntie",27998,25,36,"female","2",1,616,6.423247,-0.8407032,"none","female"
"1071","auntie",9293,9,7,"male","2",1,532,6.27664348934164,-1.3799240568908,"none","female"
"1072","auntie",25627,23,28,"female","7",1,882,6.782192,-0.9894537,"male-real","female"
"1073","auntie",27999,25,36,"female","2",1,616,6.423247,-0.8407032,"none","female"
"1074","auntie",2559,3,30,"female","4",1,457,6.12468339089421,-0.952266097950929,"female-real","female"
"1075","auntie",14715,13,105,"female","7",1,638,6.45833828334479,0.442270724679096,"male-real","female"
"1076","auntie",12447,11,120,"female","4",1,560,6.32793678372919,0.721178089205101,"female-real","female"
"1077","auntie",20403,18,95,"female","4",0,697,6.546785,0.2563325,"male-real","female"
"1078","auntie",15885,14,124,"female","4",1,519,6.25190388316589,0.795553386412036,"male-real","female"
"1079","auntie",5828,6,4,"female","2",1,642,6.46458830368996,-1.435705529796,"none","female"
"1080","auntie",15665,14,82,"female","2",1,561,6.3297209055227,0.0146127657392215,"none","female"
"1081","auntie",23674,21,79,"female","2",1,570,6.345636,-0.04116871,"none","female"
"1082","auntie",6753,6,134,"female","7",1,502,6.21860011969173,0.981491629429372,"female-real","female"
"1083","auntie",13035,12,44,"female","7",1,924,6.82871207164168,-0.691952557726658,"female-real","female"
"1084","auntie",32104,28,143,"male","7",1,1272,7.148346,1.148836,"female-real","female"
"1085","auntie",9606,9,45,"male","7",0,560,6.32793678372919,-0.673358733424924,"male-real","female"
"1086","auntie",6358,6,67,"female","4",1,786,6.66695679242921,-0.264294598786783,"male-real","female"
"1087","auntie",16516,15,49,"female","2",1,862,6.75925527066369,-0.598983436217989,"none","female"
"1088","auntie",7308,7,40,"female","4",1,600,6.39692965521615,-0.766327854933592,"female-real","female"
"1089","auntie",28000,25,36,"female","2",1,616,6.423247,-0.8407032,"none","female"
"1090","auntie",20404,18,95,"female","4",0,697,6.546785,0.2563325,"male-real","female"
"1091","auntie",5826,6,4,"female","2",1,642,6.46458830368996,-1.435705529796,"none","female"
"1092","auntie",18845,17,52,"male","2",1,544,6.298949,-0.543202,"none","female"
"1093","auntie",9695,9,55,"male","4",1,606,6.40687998606931,-0.487420490407588,"female-real","female"
"1094","auntie",15827,14,106,"female","7",1,584,6.36990098282823,0.46086454898083,"female-real","female"
"1095","auntie",26331,23,136,"female","4",1,721,6.580639,1.018679,"female-real","female"
"1096","auntie",11204,10,94,"female","2",1,458,6.12686918411419,0.237738657360026,"none","female"
"1097","auntie",23032,20,181,"female","4",1,1153,7.050123,1.855401,"male-real","female"
"1098","auntie",29781,26,127,"male","4",1,807,6.693324,0.8513349,"male-real","female"
"1099","auntie",21796,19,160,"female","7",1,573,6.350886,1.464931,"male-real","female"
"1100","auntie",9607,9,45,"male","7",0,560,6.32793678372919,-0.673358733424924,"male-real","female"
"1101","auntie",27292,24,95,"female","7",1,635,6.453625,0.2563325,"female-real","female"
"1102","auntie",25625,23,28,"female","7",1,882,6.782192,-0.9894537,"male-real","female"
"1103","auntie",29400,26,63,"male","2",1,522,6.257668,-0.3386699,"none","female"
"1104","auntie",29399,26,63,"male","2",1,522,6.257668,-0.3386699,"none","female"
"1105","auntie",7400,7,52,"female","7",0,685,6.52941883826223,-0.543201963312788,"male-real","female"
"1106","auntie",15664,14,82,"female","2",1,561,6.3297209055227,0.0146127657392215,"none","female"
"1107","auntie",26959,24,55,"female","2",1,608,6.410175,-0.4874205,"none","female"
"1108","auntie",15826,14,106,"female","7",1,584,6.36990098282823,0.46086454898083,"female-real","female"
"1109","auntie",8790,8,86,"male","2",1,581,6.36475075685191,0.0889880629461562,"none","female"
"1110","auntie",3064,3,92,"female","7",1,816,6.70441435496411,0.200551008756558,"male-real","female"
"1111","auntie",24962,22,95,"female","4",1,538,6.287859,0.2563325,"male-real","female"
"1112","auntie",24963,22,95,"female","4",1,538,6.287859,0.2563325,"male-real","female"
"1113","auntie",11206,10,94,"female","2",1,458,6.12686918411419,0.237738657360026,"none","female"
"1114","auntie",9120,8,167,"male","4",1,590,6.38012253689976,1.59508783138658,"male-real","female"
"1115","auntie",2560,3,30,"female","4",1,457,6.12468339089421,-0.952266097950929,"female-real","female"
"1116","auntie",28076,25,45,"female","4",1,667,6.50279,-0.6733587,"female-real","female"
"1117","auntie",19452,17,152,"male","7",1,649,6.475433,1.31618,"male-real","female"
"1118","auntie",1961,2,99,"female","2",1,554,6.31716468674728,0.330707778868694,"none","female"
"1119","auntie",20096,18,58,"female","2",1,583,6.368187,-0.431639,"none","female"
"1120","auntie",3066,3,92,"female","7",1,816,6.70441435496411,0.200551008756558,"male-real","female"
"1121","auntie",27589,24,168,"female","4",1,546,6.302619,1.613682,"male-real","female"
"1122","auntie",27588,24,168,"female","4",1,546,6.302619,1.613682,"male-real","female"
"1123","auntie",23897,21,114,"female","4",1,722,6.582025,0.6096151,"female-real","female"
"1124","auntie",11205,10,94,"female","2",1,458,6.12686918411419,0.237738657360026,"none","female"
"1125","auntie",10690,10,36,"female","7",1,545,6.30078579466324,-0.840703152140527,"female-real","female"
"1126","auntie",1955,2,98,"female","7",1,625,6.4377516497364,0.31211395456696,"female-real","female"
"1127","auntie",14404,13,65,"female","2",1,537,6.28599809450886,-0.301482247390251,"none","female"
"1128","auntie",23033,20,181,"female","4",1,1153,7.050123,1.855401,"male-real","female"
"1129","auntie",12869,12,19,"female","2",1,602,6.40025744530882,-1.15679816527,"none","female"
"1130","auntie",32105,28,143,"male","7",1,1272,7.148346,1.148836,"female-real","female"
"1131","auntie",14683,13,99,"female","4",1,557,6.32256523992728,0.330707778868694,"female-real","female"
"1132","auntie",17727,16,54,"female","2",1,547,6.304449,-0.5060143,"none","female"
"1133","auntie",30504,27,58,"female","7",1,805,6.690842,-0.431639,"male-real","female"
"1134","auntie",749,1,93,"female","2",1,377,5.93224518744801,0.219144833058292,"none","female"
"1135","auntie",747,1,93,"female","2",1,377,5.93224518744801,0.219144833058292,"none","female"
"1136","auntie",4071,4,76,"male","4",0,846,6.74051935960622,-0.0969501800711805,"male-real","female"
"1137","auntie",2265,2,181,"female","4",1,625,6.4377516497364,1.85540137161085,"male-real","female"
"1138","auntie",1956,2,98,"female","7",1,625,6.4377516497364,0.31211395456696,"female-real","female"
"1139","auntie",31481,28,40,"male","2",1,735,6.59987,-0.7663279,"none","female"
"1140","auntie",5066,5,51,"female","2",1,545,6.30078579466324,-0.561795787614522,"none","female"
"1141","auntie",2594,3,35,"female","2",1,638,6.45833828334479,-0.859296976442261,"none","female"
"1142","auntie",13252,12,70,"female","4",1,906,6.80903930604298,-0.208513125881582,"male-real","female"
"1143","auntie",9605,9,45,"male","7",0,560,6.32793678372919,-0.673358733424924,"male-real","female"
"1144","auntie",845,1,111,"female","4",1,589,6.37842618365159,0.553833670489498,"female-real","female"
"1145","auntie",607,1,77,"female","7",1,390,5.96614673912369,-0.0783563557694468,"male-real","female"
"1146","auntie",17728,16,54,"female","2",1,547,6.304449,-0.5060143,"none","female"
"1147","auntie",18846,17,52,"male","2",1,544,6.298949,-0.543202,"none","female"
"1148","auntie",30503,27,58,"female","7",1,805,6.690842,-0.431639,"male-real","female"
"1149","auntie",7307,7,40,"female","4",1,600,6.39692965521615,-0.766327854933592,"female-real","female"
"1150","auntie",18264,16,150,"female","4",1,554,6.317165,1.278993,"male-real","female"
"1151","auntie",30444,27,51,"female","4",1,592,6.383507,-0.5617958,"female-real","female"
"1152","auntie",11862,11,38,"female","2",1,533,6.27852142416584,-0.80351550353706,"none","female"
"1153","auntie",31480,28,40,"male","2",1,735,6.59987,-0.7663279,"none","female"
"1154","auntie",27293,24,95,"female","7",1,635,6.453625,0.2563325,"female-real","female"
"1155","auntie",1954,2,98,"female","7",1,625,6.4377516497364,0.31211395456696,"female-real","female"
"1156","auntie",16515,15,49,"female","2",1,862,6.75925527066369,-0.598983436217989,"none","female"
"1157","auntie",28078,25,45,"female","4",1,667,6.50279,-0.6733587,"female-real","female"
"1158","auntie",20097,18,58,"female","2",1,583,6.368187,-0.431639,"none","female"
"1159","auntie",28077,25,45,"female","4",1,667,6.50279,-0.6733587,"female-real","female"
"1160","auntie",748,1,93,"female","2",1,377,5.93224518744801,0.219144833058292,"none","female"
"1161","auntie",8792,8,86,"male","2",1,581,6.36475075685191,0.0889880629461562,"none","female"
"1162","auntie",18265,16,150,"female","4",1,554,6.317165,1.278993,"male-real","female"
"1163","auntie",16973,15,114,"female","4",1,765,6.63987583382654,0.609615143394699,"female-real","female"
"1164","auntie",22558,20,76,"female","2",1,586,6.37332,-0.09695018,"none","female"
"1165","auntie",2596,3,35,"female","2",1,638,6.45833828334479,-0.859296976442261,"none","female"
"1166","auntie",20455,18,103,"female","7",1,841,6.734592,0.4050831,"female-real","female"
"1167","auntie",23896,21,114,"female","4",1,722,6.582025,0.6096151,"female-real","female"
"1168","auntie",22559,20,76,"female","2",1,586,6.37332,-0.09695018,"none","female"
"1169","auntie",1960,2,99,"female","2",1,554,6.31716468674728,0.330707778868694,"none","female"
"1170","auntie",16514,15,49,"female","2",1,862,6.75925527066369,-0.598983436217989,"none","female"
"1171","auntie",14403,13,65,"female","2",1,537,6.28599809450886,-0.301482247390251,"none","female"
"1172","auntie",14684,13,99,"female","4",1,557,6.32256523992728,0.330707778868694,"female-real","female"
"1173","auntie",5067,5,51,"female","2",1,545,6.30078579466324,-0.561795787614522,"none","female"
"1174","auntie",19451,17,152,"male","7",1,649,6.475433,1.31618,"male-real","female"
"1175","auntie",15884,14,124,"female","4",1,519,6.25190388316589,0.795553386412036,"male-real","female"
"1176","auntie",11384,10,138,"female","4",1,524,6.26149168432104,1.05586692663631,"male-real","female"
"1177","auntie",6359,6,67,"female","4",1,786,6.66695679242921,-0.264294598786783,"male-real","female"
"1178","auntie",2595,3,35,"female","2",1,638,6.45833828334479,-0.859296976442261,"none","female"
"1179","auntie",13251,12,70,"female","4",1,906,6.80903930604298,-0.208513125881582,"male-real","female"
"1180","auntie",30733,27,87,"female","2",1,563,6.33328,0.1075819,"none","female"
"1181","auntie",8791,8,86,"male","2",1,581,6.36475075685191,0.0889880629461562,"none","female"
"1182","auntie",7309,7,40,"female","4",1,600,6.39692965521615,-0.766327854933592,"female-real","female"
"1183","auntie",606,1,77,"female","7",1,390,5.96614673912369,-0.0783563557694468,"male-real","female"
"1184","auntie",11863,11,38,"female","2",1,533,6.27852142416584,-0.80351550353706,"none","female"
"1185","auntie",13250,12,70,"female","4",1,906,6.80903930604298,-0.208513125881582,"male-real","female"
"1186","auntie",11864,11,38,"female","2",1,533,6.27852142416584,-0.80351550353706,"none","female"
"1187","auntie",20098,18,58,"female","2",1,583,6.368187,-0.431639,"none","female"
"1188","auntie",30445,27,51,"female","4",1,592,6.383507,-0.5617958,"female-real","female"
"1189","auntie",26332,23,136,"female","4",1,721,6.580639,1.018679,"female-real","female"
"1190","auntie",14714,13,105,"female","7",1,638,6.45833828334479,0.442270724679096,"male-real","female"
"1191","auntie",12518,11,138,"female","7",1,570,6.3456363608286,1.05586692663631,"male-real","female"
"1192","auntie",9119,8,167,"male","4",1,590,6.38012253689976,1.59508783138658,"male-real","female"
"1193","auntie",22560,20,76,"female","2",1,586,6.37332,-0.09695018,"none","female"
"1194","auntie",16972,15,114,"female","4",1,765,6.63987583382654,0.609615143394699,"female-real","female"
"1195","auntie",27294,24,95,"female","7",1,635,6.453625,0.2563325,"female-real","female"
"1196","auntie",21769,19,152,"female","4",1,589,6.378426,1.31618,"female-real","female"
"1197","auntie",12517,11,138,"female","7",1,570,6.3456363608286,1.05586692663631,"male-real","female"
"1198","auntie",2558,3,30,"female","4",1,457,6.12468339089421,-0.952266097950929,"female-real","female"
"1199","auntie",31479,28,40,"male","2",1,735,6.59987,-0.7663279,"none","female"
"1200","auntie",5065,5,51,"female","2",1,545,6.30078579466324,-0.561795787614522,"none","female"
"1201","auntie",11383,10,138,"female","4",1,524,6.26149168432104,1.05586692663631,"male-real","female"
"1202","auntie",32201,28,174,"male","4",1,1200,7.090077,1.725245,"male-real","female"
"1407","bands",17126,15,157,"female","7",1,984,6.891626,1.40915,"male-real","male"
"1408","bands",32017,28,119,"male","4",0,1199,7.089243,0.7025843,"male-real","male"
"1409","bands",27925,25,26,"female","2",1,619,6.428105,-1.026641,"none","male"
"1410","bands",32016,28,119,"male","4",0,1199,7.089243,0.7025843,"male-real","male"
"1411","bands",30115,27,11,"female","4",1,534,6.280396,-1.305549,"female-real","male"
"1412","bands",28983,26,15,"male","2",1,458,6.126869,-1.231173,"none","male"
"1413","bands",19868,18,31,"female","2",1,648,6.473891,-0.9336723,"none","male"
"1414","bands",31202,28,3,"male","2",1,896,6.79794,-1.454299,"none","male"
"1415","bands",30114,27,11,"female","4",1,534,6.280396,-1.305549,"female-real","male"
"1416","bands",13350,12,81,"female","2",1,657,6.48768401848461,-0.00398105856251214,"none","male"
"1417","bands",221,1,30,"female","2",1,473,6.15909538849193,-0.952266097950929,"none","male"
"1418","bands",27924,25,26,"female","2",1,619,6.428105,-1.026641,"none","male"
"1419","bands",23262,21,25,"female","2",1,614,6.419995,-1.045235,"none","male"
"1420","bands",13351,12,81,"female","2",1,657,6.48768401848461,-0.00398105856251214,"none","male"
"1421","bands",13349,12,81,"female","2",1,657,6.48768401848461,-0.00398105856251214,"none","male"
"1422","bands",26419,23,161,"female","7",1,556,6.320768,1.483525,"male-real","male"
"1423","bands",17288,16,3,"female","2",1,565,6.336826,-1.454299,"none","male"
"1424","bands",28980,26,15,"male","4",1,722,6.582025,-1.231173,"male-real","male"
"1425","bands",11595,10,199,"female","7",1,538,6.28785856016178,2.19009020904206,"female-real","male"
"1426","bands",2372,3,6,"female","2",1,600,6.39692965521615,-1.39851788119254,"none","male"
"1427","bands",27075,24,69,"female","7",1,856,6.75227,-0.227107,"female-real","male"
"1428","bands",27076,24,69,"female","7",1,856,6.75227,-0.227107,"female-real","male"
"1429","bands",2371,3,6,"female","2",1,600,6.39692965521615,-1.39851788119254,"none","male"
"1430","bands",30116,27,11,"female","4",1,534,6.280396,-1.305549,"female-real","male"
"1431","bands",24836,22,80,"female","2",1,687,6.532334,-0.02257488,"none","male"
"1432","bands",10264,9,159,"male","7",1,600,6.39692965521615,1.44633723697271,"male-real","male"
"1433","bands",23260,21,25,"female","2",1,614,6.419995,-1.045235,"none","male"
"1434","bands",10754,10,43,"female","2",0,529,6.2709884318583,-0.710546382028391,"none","male"
"1435","bands",17594,16,38,"female","4",1,695,6.543912,-0.8035155,"male-real","male"
"1436","bands",17596,16,38,"female","4",1,695,6.543912,-0.8035155,"male-real","male"
"1437","bands",28981,26,15,"male","2",1,458,6.126869,-1.231173,"none","male"
"1438","bands",28979,26,15,"male","4",1,722,6.582025,-1.231173,"male-real","male"
"1439","bands",16033,14,168,"female","4",1,718,6.57646956904822,1.61368165568832,"male-real","male"
"1440","bands",9417,9,22,"male","4",0,616,6.42324696353352,-1.1010166923648,"female-real","male"
"1441","bands",17595,16,38,"female","4",1,695,6.543912,-0.8035155,"male-real","male"
"1442","bands",8844,8,93,"male","7",1,684,6.52795791762255,0.219144833058292,"female-real","male"
"1443","bands",23261,21,25,"female","2",1,614,6.419995,-1.045235,"none","male"
"1444","bands",4792,5,20,"female","2",1,508,6.23048144757848,-1.13820434096827,"none","male"
"1445","bands",17268,15,200,"female","4",0,878,6.777647,2.208684,"female-real","male"
"1446","bands",1841,2,83,"female","2",1,832,6.72383244082121,0.0332065900409552,"none","male"
"1447","bands",5609,5,140,"female","7",1,605,6.40522845803084,1.09305457523977,"male-real","male"
"1448","bands",7553,7,72,"female","2",1,628,6.4425401664682,-0.171325477278115,"none","male"
"1449","bands",1842,2,83,"female","2",1,832,6.72383244082121,0.0332065900409552,"none","male"
"1450","bands",12408,11,110,"female","4",1,584,6.36990098282823,0.535239846187764,"female-real","male"
"1451","bands",220,1,30,"female","2",1,473,6.15909538849193,-0.952266097950929,"none","male"
"1452","bands",28978,26,15,"male","4",1,722,6.582025,-1.231173,"male-real","male"
"1453","bands",2373,3,6,"female","2",1,600,6.39692965521615,-1.39851788119254,"none","male"
"1454","bands",11596,10,199,"female","7",1,538,6.28785856016178,2.19009020904206,"female-real","male"
"1455","bands",9418,9,22,"male","4",0,616,6.42324696353352,-1.1010166923648,"female-real","male"
"1456","bands",4794,5,20,"female","2",1,508,6.23048144757848,-1.13820434096827,"none","male"
"1457","bands",10755,10,43,"female","2",0,529,6.2709884318583,-0.710546382028391,"none","male"
"1458","bands",22738,20,98,"female","4",1,1076,6.981006,0.312114,"male-real","male"
"1459","bands",28122,25,51,"female","4",1,712,6.568078,-0.5617958,"female-real","male"
"1460","bands",18823,17,49,"male","2",1,531,6.274762,-0.5989834,"none","male"
"1461","bands",14476,13,74,"female","7",1,829,6.7202201551353,-0.134137828674648,"male-real","male"
"1462","bands",7552,7,72,"female","2",1,628,6.4425401664682,-0.171325477278115,"none","male"
"1463","bands",31200,28,3,"male","2",1,896,6.79794,-1.454299,"none","male"
"1464","bands",15765,14,95,"female","2",1,797,6.68085467879022,0.256332481661759,"none","male"
"1465","bands",9416,9,22,"male","4",0,616,6.42324696353352,-1.1010166923648,"female-real","male"
"1466","bands",28982,26,15,"male","2",1,458,6.126869,-1.231173,"none","male"
"1467","bands",27077,24,69,"female","7",1,856,6.75227,-0.227107,"female-real","male"
"1468","bands",10263,9,159,"male","7",1,600,6.39692965521615,1.44633723697271,"male-real","male"
"1469","bands",26779,24,32,"female","2",0,688,6.533789,-0.9150784,"none","male"
"1470","bands",1585,2,51,"female","7",1,640,6.46146817635372,-0.561795787614522,"female-real","male"
"1471","bands",4132,4,83,"male","4",1,1070,6.97541392745595,0.0332065900409552,"male-real","male"
"1472","bands",11475,10,165,"female","4",0,418,6.03548143252476,1.55790018278312,"male-real","male"
"1473","bands",20175,18,67,"female","4",1,594,6.386879,-0.2642946,"male-real","male"
"1474","bands",19237,17,97,"male","7",1,608,6.410175,0.2935201,"male-real","male"
"1475","bands",7554,7,72,"female","2",1,628,6.4425401664682,-0.171325477278115,"none","male"
"1476","bands",8741,8,78,"male","2",1,710,6.56526497003536,-0.0597625314677131,"none","male"
"1477","bands",23926,21,123,"female","4",1,702,6.553933,0.7769596,"female-real","male"
"1478","bands",14197,13,41,"female","4",1,558,6.32435896238131,-0.747734030631859,"female-real","male"
"1479","bands",22645,20,86,"female","7",1,655,6.484635,0.08898806,"female-real","male"
"1480","bands",10756,10,43,"female","2",0,529,6.2709884318583,-0.710546382028391,"none","male"
"1481","bands",4793,5,20,"female","2",1,508,6.23048144757848,-1.13820434096827,"none","male"
"1482","bands",19238,17,97,"male","7",1,608,6.410175,0.2935201,"male-real","male"
"1483","bands",28121,25,51,"female","4",1,712,6.568078,-0.5617958,"female-real","male"
"1484","bands",12397,11,107,"female","7",1,531,6.27476202124194,0.479458373282563,"male-real","male"
"1485","bands",25076,22,117,"female","7",1,905,6.807935,0.6653966,"female-real","male"
"1486","bands",24837,22,80,"female","2",1,687,6.532334,-0.02257488,"none","male"
"1487","bands",14020,13,20,"female","2",1,544,6.29894924685594,-1.13820434096827,"none","male"
"1488","bands",14478,13,74,"female","7",1,829,6.7202201551353,-0.134137828674648,"male-real","male"
"1489","bands",3993,4,66,"male","2",1,611,6.4150969591716,-0.282888423088517,"none","male"
"1490","bands",31201,28,3,"male","2",1,896,6.79794,-1.454299,"none","male"
"1491","bands",22329,20,45,"female","2",1,642,6.464588,-0.6733587,"none","male"
"1492","bands",17125,15,157,"female","7",1,984,6.891626,1.40915,"male-real","male"
"1493","bands",27923,25,26,"female","2",1,619,6.428105,-1.026641,"none","male"
"1494","bands",22739,20,98,"female","4",1,1076,6.981006,0.312114,"male-real","male"
"1495","bands",22647,20,86,"female","7",1,655,6.484635,0.08898806,"female-real","male"
"1496","bands",15958,14,145,"female","7",1,683,6.52649485957079,1.18602369674844,"female-real","male"
"1497","bands",1584,2,51,"female","7",1,640,6.46146817635372,-0.561795787614522,"female-real","male"
"1498","bands",22740,20,98,"female","4",1,1076,6.981006,0.312114,"male-real","male"
"1499","bands",30390,27,44,"female","2",1,552,6.313548,-0.6919526,"none","male"
"1500","bands",15959,14,145,"female","7",1,683,6.52649485957079,1.18602369674844,"female-real","male"
"1501","bands",986,1,150,"female","4",1,645,6.46925031679577,1.27899281825711,"female-real","male"
"1502","bands",4639,4,200,"male","7",1,671,6.50876913697168,2.20868403334379,"female-real","male"
"1503","bands",12407,11,110,"female","4",1,584,6.36990098282823,0.535239846187764,"female-real","male"
"1504","bands",22331,20,45,"female","2",1,642,6.464588,-0.6733587,"none","male"
"1505","bands",5811,6,2,"female","2",1,551,6.31173480915291,-1.47289317839947,"none","male"
"1506","bands",14019,13,20,"female","2",1,544,6.29894924685594,-1.13820434096827,"none","male"
"1507","bands",6839,6,159,"female","7",1,743,6.61069604471776,1.44633723697271,"female-real","male"
"1508","bands",16032,14,168,"female","4",1,718,6.57646956904822,1.61368165568832,"male-real","male"
"1509","bands",16769,15,80,"female","2",1,793,6.67582322163485,-0.0225748828642458,"none","male"
"1510","bands",810,1,101,"female","7",0,362,5.89164421182577,0.367895427472161,"male-real","male"
"1511","bands",27580,24,166,"female","4",1,730,6.593045,1.576494,"male-real","male"
"1512","bands",25310,22,177,"female","4",1,578,6.359574,1.781026,"male-real","male"
"1513","bands",28931,26,9,"male","7",1,750,6.620073,-1.342736,"female-real","male"
"1514","bands",17656,16,45,"female","7",1,633,6.45047,-0.6733587,"female-real","male"
"1515","bands",5354,5,87,"female","4",1,668,6.50428817353665,0.10758188724789,"female-real","male"
"1516","bands",3267,3,138,"female","4",1,718,6.57646956904822,1.05586692663631,"female-real","male"
"1517","bands",14196,13,41,"female","4",1,558,6.32435896238131,-0.747734030631859,"female-real","male"
"1518","bands",219,1,30,"female","2",1,473,6.15909538849193,-0.952266097950929,"none","male"
"1519","bands",22330,20,45,"female","2",1,642,6.464588,-0.6733587,"none","male"
"1520","bands",26777,24,32,"female","2",0,688,6.533789,-0.9150784,"none","male"
"1521","bands",21144,19,49,"female","2",1,670,6.507278,-0.5989834,"none","male"
"1522","bands",13207,12,64,"female","7",1,620,6.42971947803914,-0.320076071691984,"female-real","male"
"1523","bands",21256,19,66,"female","4",1,584,6.369901,-0.2828884,"female-real","male"
"1524","bands",27581,24,166,"female","4",1,730,6.593045,1.576494,"male-real","male"
"1525","bands",20174,18,67,"female","4",1,594,6.386879,-0.2642946,"male-real","male"
"1526","bands",17290,16,3,"female","2",1,565,6.336826,-1.454299,"none","male"
"1527","bands",30389,27,44,"female","2",1,552,6.313548,-0.6919526,"none","male"
"1528","bands",19239,17,97,"male","7",1,608,6.410175,0.2935201,"male-real","male"
"1529","bands",1843,2,83,"female","2",1,832,6.72383244082121,0.0332065900409552,"none","male"
"1530","bands",14477,13,74,"female","7",1,829,6.7202201551353,-0.134137828674648,"male-real","male"
"1531","bands",8845,8,93,"male","7",1,684,6.52795791762255,0.219144833058292,"female-real","male"
"1532","bands",26420,23,161,"female","7",1,556,6.320768,1.483525,"male-real","male"
"1533","bands",15767,14,95,"female","2",1,797,6.68085467879022,0.256332481661759,"none","male"
"1534","bands",26778,24,32,"female","2",0,688,6.533789,-0.9150784,"none","male"
"1535","bands",13206,12,64,"female","7",1,620,6.42971947803914,-0.320076071691984,"female-real","male"
"1536","bands",23927,21,123,"female","4",1,702,6.553933,0.7769596,"female-real","male"
"1537","bands",25460,23,10,"female","4",1,716,6.57368,-1.324143,"female-real","male"
"1538","bands",21257,19,66,"female","4",1,584,6.369901,-0.2828884,"female-real","male"
"1539","bands",1463,2,36,"female","4",1,736,6.60123011872888,-0.840703152140527,"male-real","male"
"1540","bands",6840,6,159,"female","7",1,743,6.61069604471776,1.44633723697271,"female-real","male"
"1541","bands",28932,26,9,"male","7",1,750,6.620073,-1.342736,"female-real","male"
"1542","bands",4130,4,83,"male","4",1,1070,6.97541392745595,0.0332065900409552,"male-real","male"
"1543","bands",28123,25,51,"female","4",1,712,6.568078,-0.5617958,"female-real","male"
"1544","bands",21114,19,44,"female","7",1,528,6.269096,-0.6919526,"male-real","male"
"1545","bands",3994,4,66,"male","2",1,611,6.4150969591716,-0.282888423088517,"none","male"
"1546","bands",24838,22,80,"female","2",1,687,6.532334,-0.02257488,"none","male"
"1547","bands",15766,14,95,"female","2",1,797,6.68085467879022,0.256332481661759,"none","male"
"1548","bands",21113,19,44,"female","7",1,528,6.269096,-0.6919526,"male-real","male"
"1549","bands",25462,23,10,"female","4",1,716,6.57368,-1.324143,"female-real","male"
"1550","bands",11899,11,43,"female","2",1,524,6.26149168432104,-0.710546382028391,"none","male"
"1551","bands",21142,19,49,"female","2",1,670,6.507278,-0.5989834,"none","male"
"1552","bands",20527,18,121,"female","7",1,861,6.758095,0.7397719,"female-real","male"
"1553","bands",13205,12,64,"female","7",1,620,6.42971947803914,-0.320076071691984,"female-real","male"
"1554","bands",11898,11,43,"female","2",1,524,6.26149168432104,-0.710546382028391,"none","male"
"1555","bands",985,1,150,"female","4",1,645,6.46925031679577,1.27899281825711,"female-real","male"
"1556","bands",22646,20,86,"female","7",1,655,6.484635,0.08898806,"female-real","male"
"1557","bands",13042,12,45,"female","4",1,762,6.63594655568665,-0.673358733424924,"male-real","male"
"1558","bands",14198,13,41,"female","4",1,558,6.32435896238131,-0.747734030631859,"female-real","male"
"1559","bands",3992,4,66,"male","2",1,611,6.4150969591716,-0.282888423088517,"none","male"
"1560","bands",14021,13,20,"female","2",1,544,6.29894924685594,-1.13820434096827,"none","male"
"1561","bands",812,1,101,"female","7",0,362,5.89164421182577,0.367895427472161,"male-real","male"
"1562","bands",10031,9,96,"male","2",1,557,6.32256523992728,0.274926305963493,"none","male"
"1563","bands",18824,17,49,"male","2",1,531,6.274762,-0.5989834,"none","male"
"1564","bands",25461,23,10,"female","4",1,716,6.57368,-1.324143,"female-real","male"
"1565","bands",19870,18,31,"female","2",1,648,6.473891,-0.9336723,"none","male"
"1566","bands",21258,19,66,"female","4",1,584,6.369901,-0.2828884,"female-real","male"
"1567","bands",28930,26,9,"male","7",1,750,6.620073,-1.342736,"female-real","male"
"1568","bands",17655,16,45,"female","7",1,633,6.45047,-0.6733587,"female-real","male"
"1569","bands",11474,10,165,"female","4",0,418,6.03548143252476,1.55790018278312,"male-real","male"
"1570","bands",28592,25,123,"female","7",1,641,6.463029,0.7769596,"male-real","male"
"1571","bands",25311,22,177,"female","4",1,578,6.359574,1.781026,"male-real","male"
"1572","bands",23255,21,24,"female","7",1,855,6.751101,-1.063829,"male-real","male"
"1573","bands",5812,6,2,"female","2",1,551,6.31173480915291,-1.47289317839947,"none","male"
"1574","bands",21112,19,44,"female","7",1,528,6.269096,-0.6919526,"male-real","male"
"1575","bands",20526,18,121,"female","7",1,861,6.758095,0.7397719,"female-real","male"
"1576","bands",19189,17,91,"male","4",1,736,6.60123,0.1819572,"female-real","male"
"1577","bands",25748,23,42,"female","2",1,477,6.167516,-0.7291402,"none","male"
"1578","bands",13041,12,45,"female","4",1,762,6.63594655568665,-0.673358733424924,"male-real","male"
"1579","bands",20176,18,67,"female","4",1,594,6.386879,-0.2642946,"male-real","male"
"1580","bands",8743,8,78,"male","2",1,710,6.56526497003536,-0.0597625314677131,"none","male"
"1581","bands",8139,7,200,"female","4",1,816,6.70441435496411,2.20868403334379,"female-real","male"
"1582","bands",23254,21,24,"female","7",1,855,6.751101,-1.063829,"male-real","male"
"1583","bands",811,1,101,"female","7",0,362,5.89164421182577,0.367895427472161,"male-real","male"
"1584","bands",17654,16,45,"female","7",1,633,6.45047,-0.6733587,"female-real","male"
"1585","bands",25749,23,42,"female","2",1,477,6.167516,-0.7291402,"none","male"
"1586","bands",19190,17,91,"male","4",1,736,6.60123,0.1819572,"female-real","male"
"1587","bands",23256,21,24,"female","7",1,855,6.751101,-1.063829,"male-real","male"
"1588","bands",19191,17,91,"male","4",1,736,6.60123,0.1819572,"female-real","male"
"1589","bands",4131,4,83,"male","4",1,1070,6.97541392745595,0.0332065900409552,"male-real","male"
"1590","bands",13040,12,45,"female","4",1,762,6.63594655568665,-0.673358733424924,"male-real","male"
"1591","bands",1462,2,36,"female","4",1,736,6.60123011872888,-0.840703152140527,"male-real","male"
"1592","bands",11900,11,43,"female","2",1,524,6.26149168432104,-0.710546382028391,"none","male"
"1593","bands",25077,22,117,"female","7",1,905,6.807935,0.6653966,"female-real","male"
"1594","bands",10032,9,96,"male","2",1,557,6.32256523992728,0.274926305963493,"none","male"
"1595","bands",1464,2,36,"female","4",1,736,6.60123011872888,-0.840703152140527,"male-real","male"
"1596","bands",12398,11,107,"female","7",1,531,6.27476202124194,0.479458373282563,"male-real","male"
"1597","bands",5353,5,87,"female","4",1,668,6.50428817353665,0.10758188724789,"female-real","male"
"1598","bands",16771,15,80,"female","2",1,793,6.67582322163485,-0.0225748828642458,"none","male"
"1599","bands",8742,8,78,"male","2",1,710,6.56526497003536,-0.0597625314677131,"none","male"
"1600","bands",19869,18,31,"female","2",1,648,6.473891,-0.9336723,"none","male"
"1601","bands",18825,17,49,"male","2",1,531,6.274762,-0.5989834,"none","male"
"1602","bands",10033,9,96,"male","2",1,557,6.32256523992728,0.274926305963493,"none","male"
"1603","bands",25750,23,42,"female","2",1,477,6.167516,-0.7291402,"none","male"
"1604","bands",16770,15,80,"female","2",1,793,6.67582322163485,-0.0225748828642458,"none","male"
"1605","bands",21143,19,49,"female","2",1,670,6.507278,-0.5989834,"none","male"
"1606","bands",17289,16,3,"female","2",1,565,6.336826,-1.454299,"none","male"
"2010","bloke",23569,21,67,"female","2",1,584,6.369901,-0.2642946,"none","male"
"2011","bloke",1490,2,39,"female","4",1,763,6.63725803128446,-0.784921679235326,"male-real","male"
"2012","bloke",13842,12,190,"female","7",1,637,6.45676965557216,2.02274579032646,"female-real","male"
"2013","bloke",31337,28,20,"male","2",1,724,6.584791,-1.138204,"none","male"
"2014","bloke",26709,24,23,"female","2",1,577,6.357842,-1.082423,"none","male"
"2015","bloke",26710,24,23,"female","2",1,577,6.357842,-1.082423,"none","male"
"2016","bloke",31336,28,20,"male","2",1,724,6.584791,-1.138204,"none","male"
"2017","bloke",25100,22,123,"female","4",1,523,6.259581,0.7769596,"male-real","male"
"2018","bloke",3193,3,115,"female","4",0,1068,6.97354301952014,0.628208967696433,"female-real","male"
"2019","bloke",28947,26,11,"male","7",1,635,6.453625,-1.305549,"female-real","male"
"2020","bloke",16678,15,69,"female","7",1,884,6.78445706263764,-0.227106950183316,"male-real","male"
"2021","bloke",18592,17,21,"male","2",1,605,6.405228,-1.119611,"none","male"
"2022","bloke",15702,14,88,"female","2",1,678,6.5191472879404,0.126175711549624,"none","male"
"2023","bloke",15863,14,117,"female","7",1,530,6.27287700654617,0.6653966162999,"female-real","male"
"2024","bloke",23570,21,67,"female","2",1,584,6.369901,-0.2642946,"none","male"
"2025","bloke",11682,11,14,"female","7",0,963,6.87005341179813,-1.24976728677867,"male-real","male"
"2026","bloke",5855,6,7,"female","4",1,507,6.22851100359118,-1.3799240568908,"male-real","male"
"2027","bloke",26963,24,55,"female","7",1,563,6.33328,-0.4874205,"female-real","male"
"2028","bloke",3194,3,115,"female","4",0,1068,6.97354301952014,0.628208967696433,"female-real","male"
"2029","bloke",26708,24,23,"female","2",1,577,6.357842,-1.082423,"none","male"
"2030","bloke",31609,28,58,"male","7",0,967,6.874198,-0.431639,"female-real","male"
"2031","bloke",28137,25,52,"female","4",1,585,6.371612,-0.543202,"female-real","male"
"2032","bloke",574,1,72,"female","2",0,334,5.8111409929767,-0.171325477278115,"none","male"
"2033","bloke",20226,18,73,"female","2",1,561,6.329721,-0.1527317,"none","male"
"2034","bloke",28945,26,11,"male","7",1,635,6.453625,-1.305549,"female-real","male"
"2035","bloke",28098,25,48,"female","7",1,874,6.77308,-0.6175773,"male-real","male"
"2036","bloke",31335,28,20,"male","2",1,724,6.584791,-1.138204,"none","male"
"2037","bloke",28946,26,11,"male","7",1,635,6.453625,-1.305549,"female-real","male"
"2038","bloke",28138,25,52,"female","4",1,585,6.371612,-0.543202,"female-real","male"
"2039","bloke",31509,28,43,"male","4",1,982,6.889591,-0.7105464,"male-real","male"
"2040","bloke",31004,27,144,"female","4",0,726,6.58755,1.16743,"female-real","male"
"2041","bloke",6799,6,148,"female","7",0,549,6.30809844150953,1.24180516965364,"female-real","male"
"2042","bloke",2138,2,141,"female","7",1,615,6.42162226780652,1.11164839954151,"female-real","male"
"2043","bloke",16677,15,69,"female","7",1,884,6.78445706263764,-0.227106950183316,"male-real","male"
"2044","bloke",10810,10,49,"female","2",1,742,6.60934924316738,-0.598983436217989,"none","male"
"2045","bloke",17634,16,42,"female","2",1,738,6.603944,-0.7291402,"none","male"
"2046","bloke",28097,25,48,"female","7",1,874,6.77308,-0.6175773,"male-real","male"
"2047","bloke",11683,11,14,"female","7",0,963,6.87005341179813,-1.24976728677867,"male-real","male"
"2048","bloke",1491,2,39,"female","4",1,763,6.63725803128446,-0.784921679235326,"male-real","male"
"2049","bloke",18292,16,157,"female","7",1,566,6.338594,1.40915,"female-real","male"
"2050","bloke",15703,14,88,"female","2",1,678,6.5191472879404,0.126175711549624,"none","male"
"2051","bloke",11316,10,120,"female","7",1,636,6.45519856334012,0.721178089205101,"female-real","male"
"2052","bloke",746,1,93,"female","4",1,473,6.15909538849193,0.219144833058292,"female-real","male"
"2053","bloke",10320,9,175,"male","7",1,610,6.41345895716736,1.74383842580045,"male-real","male"
"2054","bloke",8608,8,63,"male","4",1,573,6.35088571671474,-0.338669895993718,"male-real","male"
"2055","bloke",573,1,72,"female","2",0,334,5.8111409929767,-0.171325477278115,"none","male"
"2056","bloke",2137,2,141,"female","7",1,615,6.42162226780652,1.11164839954151,"female-real","male"
"2057","bloke",26322,23,133,"female","4",0,540,6.291569,0.9628978,"female-real","male"
"2058","bloke",1489,2,39,"female","4",1,763,6.63725803128446,-0.784921679235326,"male-real","male"
"2059","bloke",10809,10,49,"female","2",1,742,6.60934924316738,-0.598983436217989,"none","male"
"2060","bloke",26962,24,55,"female","7",1,563,6.33328,-0.4874205,"female-real","male"
"2061","bloke",28136,25,52,"female","4",1,585,6.371612,-0.543202,"female-real","male"
"2062","bloke",25910,23,62,"female","2",0,537,6.285998,-0.3572637,"none","male"
"2063","bloke",5853,6,7,"female","4",1,507,6.22851100359118,-1.3799240568908,"male-real","male"
"2064","bloke",17635,16,42,"female","2",1,738,6.603944,-0.7291402,"none","male"
"2065","bloke",10319,9,175,"male","7",1,610,6.41345895716736,1.74383842580045,"male-real","male"
"2066","bloke",21323,19,74,"female","2",1,550,6.309918,-0.1341378,"none","male"
"2067","bloke",22945,20,154,"female","7",1,603,6.401917,1.353368,"female-real","male"
"2068","bloke",12341,11,97,"female","2",1,698,6.54821910276237,0.293520130265227,"none","male"
"2069","bloke",575,1,72,"female","2",0,334,5.8111409929767,-0.171325477278115,"none","male"
"2070","bloke",25101,22,123,"female","4",1,523,6.259581,0.7769596,"male-real","male"
"2071","bloke",12340,11,97,"female","2",1,698,6.54821910276237,0.293520130265227,"none","male"
"2072","bloke",9056,8,147,"male","7",0,883,6.78332520060396,1.22321134535191,"female-real","male"
"2073","bloke",27444,24,129,"female","4",0,564,6.335054,0.8885225,"male-real","male"
"2074","bloke",3537,4,8,"male","2",1,605,6.40522845803084,-1.36133023258907,"none","male"
"2075","bloke",11684,11,14,"female","7",0,963,6.87005341179813,-1.24976728677867,"male-real","male"
"2076","bloke",7434,7,57,"female","7",1,578,6.35957386867238,-0.45023284180412,"male-real","male"
"2077","bloke",684,1,86,"female","7",1,506,6.22653666928747,0.0889880629461562,"male-real","male"
"2078","bloke",29663,26,96,"male","2",1,643,6.466145,0.2749263,"none","male"
"2079","bloke",15704,14,88,"female","2",1,678,6.5191472879404,0.126175711549624,"none","male"
"2080","bloke",8606,8,63,"male","4",1,573,6.35088571671474,-0.338669895993718,"male-real","male"
"2081","bloke",8607,8,63,"male","4",1,573,6.35088571671474,-0.338669895993718,"male-real","male"
"2082","bloke",17445,16,21,"female","4",1,570,6.345636,-1.119611,"male-real","male"
"2083","bloke",17444,16,21,"female","4",1,570,6.345636,-1.119611,"male-real","male"
"2084","bloke",17446,16,21,"female","4",1,570,6.345636,-1.119611,"male-real","male"
"2085","bloke",9055,8,147,"male","7",0,883,6.78332520060396,1.22321134535191,"female-real","male"
"2086","bloke",7433,7,57,"female","7",1,578,6.35957386867238,-0.45023284180412,"male-real","male"
"2087","bloke",18293,16,157,"female","7",1,566,6.338594,1.40915,"female-real","male"
"2088","bloke",744,1,93,"female","4",1,473,6.15909538849193,0.219144833058292,"female-real","male"
"2089","bloke",20483,18,110,"female","4",1,612,6.416732,0.5352398,"male-real","male"
"2090","bloke",3535,4,8,"male","2",1,605,6.40522845803084,-1.36133023258907,"none","male"
