"","Stimulus","X","Subject","Trial","Sex","Block","ACC","RT","RTlog","cTrial","condition","WordGender"
"196","agent",8646,8,48,"male","2",1,788,6.66949808985788,-0.643989403542724,"none","male"
"197","agent",7348,7,38,"female","4",1,634,6.45204895443723,-0.829777789567283,"male-real","male"
"198","agent",12766,11,137,"female","4",1,755,6.62671774924902,1.00952723207585,"male-real","male"
"199","agent",32558,28,135,"male","7",1,934,6.83947643822884,0.972369554870937,"female-real","male"
"200","agent",17553,15,181,"female","4",1,789,6.67076632084587,1.82699613058391,"male-real","male"
"201","agent",4025,4,63,"male","2",1,692,6.53958595561767,-0.365306824505886,"none","male"
"202","agent",14591,13,52,"female","2",1,655,6.48463523563525,-0.5696740491329,"none","male"
"203","agent",23347,20,167,"female","7",1,923,6.82762923450285,1.56689239014952,"female-real","male"
"204","agent",17453,15,149,"female","7",1,1224,7.10987946307227,1.23247329530532,"female-real","male"
"205","agent",10382,9,129,"male","7",1,713,6.5694814204143,0.860896523256202,"male-real","male"
"206","agent",11257,10,76,"female","2",0,823,6.71295620067707,-0.12378192267396,"none","male"
"207","agent",13255,12,33,"female","2",1,731,6.59441345974978,-0.922671982579562,"none","male"
"208","agent",13730,12,90,"female","4",1,1103,7.0057890192535,0.136321817760423,"male-real","male"
"209","agent",1552,2,49,"female","2",1,613,6.41836493593621,-0.625410564940268,"none","male"
"210","agent",23872,21,51,"female","2",1,776,6.65415252018322,-0.588252887735356,"none","male"
"211","agent",30394,26,157,"male","4",1,666,6.50128967054039,1.38110400412497,"female-real","male"
"212","agent",14965,13,98,"female","7",1,759,6.63200177739563,0.28495252658007,"male-real","male"
"213","agent",30393,26,157,"male","4",1,666,6.50128967054039,1.38110400412497,"female-real","male"
"214","agent",17552,15,181,"female","4",1,789,6.67076632084587,1.82699613058391,"male-real","male"
"215","agent",4813,5,17,"female","7",1,642,6.46458830368996,-1.21993340021886,"male-real","male"
"216","agent",14592,13,52,"female","2",1,655,6.48463523563525,-0.5696740491329,"none","male"
"217","agent",11875,11,8,"female","2",1,641,6.46302945692067,-1.38714294764096,"none","male"
"218","agent",21338,19,26,"female","4",1,537,6.28599809450886,-1.05272385279675,"male-real","male"
"219","agent",27952,24,133,"female","4",1,742,6.60934924316738,0.935211877666025,"male-real","male"
"220","agent",22109,19,143,"female","7",1,960,6.86693328446188,1.12100026369058,"female-real","male"
"221","agent",22110,19,143,"female","7",1,960,6.86693328446188,1.12100026369058,"female-real","male"
"222","agent",7347,7,38,"female","4",1,634,6.45204895443723,-0.829777789567283,"male-real","male"
"223","agent",23870,21,51,"female","2",1,776,6.65415252018322,-0.588252887735356,"none","male"
"224","agent",6403,6,66,"female","2",1,636,6.45519856334012,-0.309570308698518,"none","male"
"225","agent",8645,8,48,"male","2",1,788,6.66949808985788,-0.643989403542724,"none","male"
"226","agent",688,1,86,"female","2",0,482,6.1779441140506,0.0620064633505992,"none","male"
"227","agent",24620,21,193,"female","4",1,727,6.58892647753352,2.04994219381338,"female-real","male"
"228","agent",5066,5,49,"female","2",1,572,6.3491389913798,-0.625410564940268,"none","male"
"229","agent",4023,4,63,"male","2",1,692,6.53958595561767,-0.365306824505886,"none","male"
"230","agent",22402,20,13,"female","2",1,806,6.69208374250663,-1.29424875462868,"none","male"
"231","agent",22404,20,13,"female","2",1,806,6.69208374250663,-1.29424875462868,"none","male"
"232","agent",32557,28,135,"male","7",1,934,6.83947643822884,0.972369554870937,"female-real","male"
"233","agent",14953,13,97,"female","4",1,652,6.48004456192665,0.266373687977614,"female-real","male"
"234","agent",21340,19,26,"female","4",1,537,6.28599809450886,-1.05272385279675,"male-real","male"
"235","agent",13257,12,33,"female","2",1,731,6.59441345974978,-0.922671982579562,"none","male"
"236","agent",20377,18,55,"female","4",1,634,6.45204895443723,-0.513937533325533,"female-real","male"
"237","agent",26906,23,162,"female","4",0,644,6.46769872610435,1.47399819713725,"male-real","male"
"238","agent",26905,23,162,"female","4",0,644,6.46769872610435,1.47399819713725,"male-real","male"
"239","agent",29852,26,62,"male","2",1,588,6.37672694789863,-0.383885663108342,"none","male"
"240","agent",31597,27,173,"female","7",1,561,6.3297209055227,1.67836542176426,"female-real","male"
"241","agent",11683,10,161,"female","7",0,666,6.50128967054039,1.45541935853479,"male-real","male"
"242","agent",7869,7,100,"female","7",1,575,6.35437004079735,0.322110203784981,"female-real","male"
"243","agent",14954,13,97,"female","4",1,652,6.48004456192665,0.266373687977614,"female-real","male"
"244","agent",18665,16,163,"female","7",1,693,6.5410299991899,1.4925770357397,"female-real","male"
"245","agent",27953,24,133,"female","4",1,742,6.60934924316738,0.935211877666025,"male-real","male"
"246","agent",15780,14,60,"female","2",1,747,6.61606518513282,-0.421043340313253,"none","male"
"247","agent",31475,27,140,"female","4",1,665,6.49978704065585,1.06526374788322,"male-real","male"
"248","agent",3723,4,29,"male","7",1,876,6.77536609093639,-0.996987336989386,"female-real","male"
"249","agent",23871,21,51,"female","2",1,776,6.65415252018322,-0.588252887735356,"none","male"
"250","agent",20376,18,55,"female","4",1,634,6.45204895443723,-0.513937533325533,"female-real","male"
"251","agent",1168,1,192,"female","4",0,477,6.16751649088834,2.03136335521092,"female-real","male"
"252","agent",14964,13,98,"female","7",1,759,6.63200177739563,0.28495252658007,"male-real","male"
"253","agent",687,1,86,"female","2",0,482,6.1779441140506,0.0620064633505992,"none","male"
"254","agent",24619,21,193,"female","4",1,727,6.58892647753352,2.04994219381338,"female-real","male"
"255","agent",4812,5,17,"female","7",1,642,6.46458830368996,-1.21993340021886,"male-real","male"
"256","agent",21339,19,26,"female","4",1,537,6.28599809450886,-1.05272385279675,"male-real","male"
"257","agent",31596,27,173,"female","7",1,561,6.3297209055227,1.67836542176426,"female-real","male"
"258","agent",15781,14,60,"female","2",1,747,6.61606518513282,-0.421043340313253,"none","male"
"259","agent",21049,18,173,"female","7",1,870,6.76849321164863,1.67836542176426,"male-real","male"
"260","agent",17452,15,149,"female","7",1,1224,7.10987946307227,1.23247329530532,"female-real","male"
"261","agent",10381,9,129,"male","7",1,713,6.5694814204143,0.860896523256202,"male-real","male"
"262","agent",11876,11,8,"female","2",1,641,6.46302945692067,-1.38714294764096,"none","male"
"263","agent",8644,8,48,"male","2",1,788,6.66949808985788,-0.643989403542724,"none","male"
"264","agent",29850,26,62,"male","2",1,588,6.37672694789863,-0.383885663108342,"none","male"
"265","agent",7868,7,100,"female","7",1,575,6.35437004079735,0.322110203784981,"female-real","male"
"266","agent",25112,22,56,"female","4",1,565,6.33682573114644,-0.495358694723077,"female-real","male"
"267","agent",25113,22,56,"female","4",1,565,6.33682573114644,-0.495358694723077,"female-real","male"
"268","agent",6402,6,66,"female","2",1,636,6.45519856334012,-0.309570308698518,"none","male"
"269","agent",3409,3,160,"female","7",1,620,6.42971947803914,1.43684051993233,"female-real","male"
"270","agent",29120,25,129,"female","7",1,642,6.46458830368996,0.860896523256202,"male-real","male"
"271","agent",1851,2,82,"female","7",1,757,6.62936325343745,-0.0123088910592243,"male-real","male"
"272","agent",2314,2,184,"female","4",1,654,6.4831073514572,1.88273264639127,"female-real","male"
"273","agent",29132,25,133,"female","4",1,764,6.63856778916652,0.935211877666025,"female-real","male"
"274","agent",13942,12,133,"female","7",1,799,6.68336094576627,0.935211877666025,"female-real","male"
"275","agent",13256,12,33,"female","2",1,731,6.59441345974978,-0.922671982579562,"none","male"
"276","agent",689,1,86,"female","2",0,482,6.1779441140506,0.0620064633505992,"none","male"
"277","agent",29133,25,133,"female","4",1,764,6.63856778916652,0.935211877666025,"female-real","male"
"278","agent",6673,6,98,"female","4",1,564,6.33505425149806,0.28495252658007,"female-real","male"
"279","agent",7349,7,38,"female","4",1,634,6.45204895443723,-0.829777789567283,"male-real","male"
"280","agent",20309,18,46,"female","2",1,473,6.15909538849193,-0.681147080747636,"none","male"
"281","agent",23346,20,167,"female","7",1,923,6.82762923450285,1.56689239014952,"female-real","male"
"282","agent",4635,4,184,"male","4",1,597,6.3919171133926,1.88273264639127,"male-real","male"
"283","agent",6771,6,119,"female","7",0,576,6.35610766069589,0.675108137231643,"male-real","male"
"284","agent",14952,13,97,"female","4",1,652,6.48004456192665,0.266373687977614,"female-real","male"
"285","agent",5286,5,74,"female","4",1,585,6.37161184723186,-0.160939599878871,"female-real","male"
"286","agent",5287,5,74,"female","4",1,585,6.37161184723186,-0.160939599878871,"female-real","male"
"287","agent",5068,5,49,"female","2",1,572,6.3491389913798,-0.625410564940268,"none","male"
"288","agent",19530,17,93,"male","2",1,487,6.18826412308259,0.19205833356779,"none","male"
"289","agent",4024,4,63,"male","2",1,692,6.53958595561767,-0.365306824505886,"none","male"
"290","agent",10535,9,170,"male","4",1,613,6.41836493593621,1.62262890595689,"female-real","male"
"291","agent",26530,23,83,"female","2",1,426,6.05443934626937,0.00626994754323157,"none","male"
"292","agent",26200,23,43,"female","7",1,611,6.4150969591716,-0.736883596555003,"female-real","male"
"293","agent",18664,16,163,"female","7",1,693,6.5410299991899,1.4925770357397,"female-real","male"
"294","agent",6672,6,98,"female","4",1,564,6.33505425149806,0.28495252658007,"female-real","male"
"295","agent",6671,6,98,"female","4",1,564,6.33505425149806,0.28495252658007,"female-real","male"
"296","agent",26199,23,43,"female","7",1,611,6.4150969591716,-0.736883596555003,"female-real","male"
"297","agent",25100,22,55,"female","7",1,532,6.27664348934164,-0.513937533325533,"male-real","male"
"298","agent",7867,7,100,"female","7",1,575,6.35437004079735,0.322110203784981,"female-real","male"
"299","agent",32323,28,84,"male","2",1,666,6.50128967054039,0.0248487861456874,"none","male"
"300","agent",18691,16,170,"female","4",1,979,6.88653164253051,1.62262890595689,"male-real","male"
"301","agent",30236,26,113,"male","7",0,591,6.3818160174061,0.563635105616908,"male-real","male"
"302","agent",22403,20,13,"female","2",1,806,6.69208374250663,-1.29424875462868,"none","male"
"303","agent",14593,13,52,"female","2",1,655,6.48463523563525,-0.5696740491329,"none","male"
"304","agent",31474,27,140,"female","4",1,665,6.49978704065585,1.06526374788322,"male-real","male"
"305","agent",29851,26,62,"male","2",1,588,6.37672694789863,-0.383885663108342,"none","male"
"306","agent",6401,6,66,"female","2",1,636,6.45519856334012,-0.309570308698518,"none","male"
"307","agent",2313,2,184,"female","4",1,654,6.4831073514572,1.88273264639127,"female-real","male"
"308","agent",26201,23,43,"female","7",1,611,6.4150969591716,-0.736883596555003,"female-real","male"
"309","agent",11830,10,200,"female","4",1,815,6.70318811324086,2.17999406403057,"female-real","male"
"310","agent",17820,16,26,"female","2",1,535,6.28226674689601,-1.05272385279675,"none","male"
"311","agent",15779,14,60,"female","2",1,747,6.61606518513282,-0.421043340313253,"none","male"
"312","agent",2695,3,40,"female","4",0,928,6.8330317327862,-0.792620112362371,"male-real","male"
"313","agent",6772,6,119,"female","7",0,576,6.35610766069589,0.675108137231643,"male-real","male"
"314","agent",32322,28,84,"male","2",1,666,6.50128967054039,0.0248487861456874,"none","male"
"315","agent",30235,26,113,"male","7",0,591,6.3818160174061,0.563635105616908,"male-real","male"
"316","agent",13732,12,90,"female","4",1,1103,7.0057890192535,0.136321817760423,"male-real","male"
"317","agent",19154,17,46,"male","7",1,503,6.22059017009974,-0.681147080747636,"male-real","male"
"318","agent",1167,1,192,"female","4",0,477,6.16751649088834,2.03136335521092,"female-real","male"
"319","agent",21048,18,173,"female","7",1,870,6.76849321164863,1.67836542176426,"male-real","male"
"320","agent",15785,14,60,"female","7",1,556,6.32076829425058,-0.421043340313253,"male-real","male"
"321","agent",15786,14,60,"female","7",1,556,6.32076829425058,-0.421043340313253,"male-real","male"
"322","agent",16987,15,65,"female","2",1,801,6.68586094706836,-0.328149147300974,"none","male"
"323","agent",16988,15,65,"female","2",1,801,6.68586094706836,-0.328149147300974,"none","male"
"324","agent",25099,22,55,"female","7",1,532,6.27664348934164,-0.513937533325533,"male-real","male"
"325","agent",32324,28,84,"male","2",1,666,6.50128967054039,0.0248487861456874,"none","male"
"326","agent",16254,14,147,"female","4",1,725,6.58617165485467,1.19531561810041,"female-real","male"
"327","agent",31933,28,32,"male","4",1,1288,7.1608459066643,-0.941250821182018,"male-real","male"
"328","agent",22820,20,66,"female","4",1,865,6.76272950693188,-0.309570308698518,"male-real","male"
"329","agent",3410,3,160,"female","7",1,620,6.42971947803914,1.43684051993233,"female-real","male"
"330","agent",11874,11,8,"female","2",1,641,6.46302945692067,-1.38714294764096,"none","male"
"331","agent",10536,9,170,"male","4",1,613,6.41836493593621,1.62262890595689,"female-real","male"
"332","agent",11258,10,76,"female","2",0,823,6.71295620067707,-0.12378192267396,"none","male"
"333","agent",26531,23,83,"female","2",1,426,6.05443934626937,0.00626994754323157,"none","male"
"334","agent",2994,3,77,"female","2",1,854,6.74993119378857,-0.105203084071504,"none","male"
"335","agent",24693,22,8,"female","2",1,630,6.44571981938558,-1.38714294764096,"none","male"
"336","agent",25101,22,55,"female","7",1,532,6.27664348934164,-0.513937533325533,"male-real","male"
"337","agent",1554,2,49,"female","2",1,613,6.41836493593621,-0.625410564940268,"none","male"
"338","agent",5285,5,74,"female","4",1,585,6.37161184723186,-0.160939599878871,"female-real","male"
"339","agent",20375,18,55,"female","4",1,634,6.45204895443723,-0.513937533325533,"female-real","male"
"340","agent",17822,16,26,"female","2",1,535,6.28226674689601,-1.05272385279675,"none","male"
"341","agent",25111,22,56,"female","4",1,565,6.33682573114644,-0.495358694723077,"female-real","male"
"342","agent",19528,17,93,"male","2",1,487,6.18826412308259,0.19205833356779,"none","male"
"343","agent",28154,24,191,"female","7",0,790,6.67203294546107,2.01278451660847,"female-real","male"
"344","agent",13731,12,90,"female","4",1,1103,7.0057890192535,0.136321817760423,"male-real","male"
"345","agent",23635,21,23,"female","7",1,547,6.30444880242198,-1.10846036860412,"male-real","male"
"346","agent",19953,17,197,"male","4",1,483,6.18001665365257,2.1242575482232,"female-real","male"
"347","agent",4811,5,17,"female","7",1,642,6.46458830368996,-1.21993340021886,"male-real","male"
"348","agent",15787,14,60,"female","7",1,556,6.32076829425058,-0.421043340313253,"male-real","male"
"349","agent",17821,16,26,"female","2",1,535,6.28226674689601,-1.05272385279675,"none","male"
"350","agent",8856,8,74,"male","4",1,742,6.60934924316738,-0.160939599878871,"male-real","male"
"351","agent",30846,27,40,"female","2",1,824,6.71417052990947,-0.792620112362371,"none","male"
"352","agent",1553,2,49,"female","2",1,613,6.41836493593621,-0.625410564940268,"none","male"
"353","agent",16253,14,147,"female","4",1,725,6.58617165485467,1.19531561810041,"female-real","male"
"354","agent",20311,18,46,"female","2",1,473,6.15909538849193,-0.681147080747636,"none","male"
"355","agent",8854,8,74,"male","4",1,742,6.60934924316738,-0.160939599878871,"male-real","male"
"356","agent",13941,12,133,"female","7",1,799,6.68336094576627,0.935211877666025,"female-real","male"
"357","agent",19529,17,93,"male","2",1,487,6.18826412308259,0.19205833356779,"none","male"
"358","agent",19152,17,46,"male","7",1,503,6.22059017009974,-0.681147080747636,"male-real","male"
"359","agent",3725,4,29,"male","7",1,876,6.77536609093639,-0.996987336989386,"female-real","male"
"360","agent",3724,4,29,"male","7",1,876,6.77536609093639,-0.996987336989386,"female-real","male"
"361","agent",27483,24,59,"female","2",1,837,6.72982407048948,-0.439622178915709,"none","male"
"362","agent",30848,27,40,"female","2",1,824,6.71417052990947,-0.792620112362371,"none","male"
"363","agent",29121,25,129,"female","7",1,642,6.46458830368996,0.860896523256202,"male-real","male"
"364","agent",30847,27,40,"female","2",1,824,6.71417052990947,-0.792620112362371,"none","male"
"365","agent",20310,18,46,"female","2",1,473,6.15909538849193,-0.681147080747636,"none","male"
"366","agent",16986,15,65,"female","2",1,801,6.68586094706836,-0.328149147300974,"none","male"
"367","agent",9021,8,93,"male","7",1,542,6.29526600143965,0.19205833356779,"female-real","male"
"368","agent",18690,16,170,"female","4",1,979,6.88653164253051,1.62262890595689,"male-real","male"
"369","agent",31934,28,32,"male","4",1,1288,7.1608459066643,-0.941250821182018,"male-real","male"
"370","agent",28153,24,191,"female","7",0,790,6.67203294546107,2.01278451660847,"female-real","male"
"371","agent",1850,2,82,"female","7",1,757,6.62936325343745,-0.0123088910592243,"male-real","male"
"372","agent",1082,1,169,"female","7",1,347,5.84932477994686,1.60405006735444,"male-real","male"
"373","agent",23634,21,23,"female","7",1,547,6.30444880242198,-1.10846036860412,"male-real","male"
"374","agent",26532,23,83,"female","2",1,426,6.05443934626937,0.00626994754323157,"none","male"
"375","agent",24691,22,8,"female","2",1,630,6.44571981938558,-1.38714294764096,"none","male"
"376","agent",1081,1,169,"female","7",1,347,5.84932477994686,1.60405006735444,"male-real","male"
"377","agent",2993,3,77,"female","2",1,854,6.74993119378857,-0.105203084071504,"none","male"
"378","agent",14966,13,98,"female","7",1,759,6.63200177739563,0.28495252658007,"male-real","male"
"379","agent",2694,3,40,"female","4",0,928,6.8330317327862,-0.792620112362371,"male-real","male"
"380","agent",5067,5,49,"female","2",1,572,6.3491389913798,-0.625410564940268,"none","male"
"381","agent",19954,17,197,"male","4",1,483,6.18001665365257,2.1242575482232,"female-real","male"
"382","agent",4636,4,184,"male","4",1,597,6.3919171133926,1.88273264639127,"male-real","male"
"383","agent",8855,8,74,"male","4",1,742,6.60934924316738,-0.160939599878871,"male-real","male"
"384","agent",1849,2,82,"female","7",1,757,6.62936325343745,-0.0123088910592243,"male-real","male"
"385","agent",2696,3,40,"female","4",0,928,6.8330317327862,-0.792620112362371,"male-real","male"
"386","agent",9020,8,93,"male","7",1,542,6.29526600143965,0.19205833356779,"female-real","male"
"387","agent",21772,19,80,"female","2",1,693,6.5410299991899,-0.049466568264136,"none","male"
"388","agent",9019,8,93,"male","7",1,542,6.29526600143965,0.19205833356779,"female-real","male"
"389","agent",22821,20,66,"female","4",1,865,6.76272950693188,-0.309570308698518,"male-real","male"
"390","agent",21773,19,80,"female","2",1,693,6.5410299991899,-0.049466568264136,"none","male"
"391","agent",27481,24,59,"female","2",1,837,6.72982407048948,-0.439622178915709,"none","male"
"392","agent",24692,22,8,"female","2",1,630,6.44571981938558,-1.38714294764096,"none","male"
"393","agent",19153,17,46,"male","7",1,503,6.22059017009974,-0.681147080747636,"male-real","male"
"394","agent",22819,20,66,"female","4",1,865,6.76272950693188,-0.309570308698518,"male-real","male"
"395","agent",2992,3,77,"female","2",1,854,6.74993119378857,-0.105203084071504,"none","male"
"396","agent",21774,19,80,"female","2",1,693,6.5410299991899,-0.049466568264136,"none","male"
"397","agent",23633,21,23,"female","7",1,547,6.30444880242198,-1.10846036860412,"male-real","male"
"398","agent",11684,10,161,"female","7",0,666,6.50128967054039,1.45541935853479,"male-real","male"
"399","agent",31935,28,32,"male","4",1,1288,7.1608459066643,-0.941250821182018,"male-real","male"
"400","agent",27482,24,59,"female","2",1,837,6.72982407048948,-0.439622178915709,"none","male"
"401","apprenticeship",26620,23,93,"female","7",1,687,6.53233429222235,0.19205833356779,"female-real","male"
"402","apprenticeship",26621,23,93,"female","7",1,687,6.53233429222235,0.19205833356779,"female-real","male"
"403","apprenticeship",11361,10,90,"female","2",1,696,6.54534966033442,0.136321817760423,"none","male"
"404","apprenticeship",8004,7,134,"female","4",1,585,6.37161184723186,0.953790716268481,"male-real","male"
"405","apprenticeship",12816,11,153,"female","7",1,1101,7.00397413672268,1.30678864971514,"female-real","male"
"406","apprenticeship",21694,19,69,"female","7",1,504,6.22257626807137,-0.253833792891151,"female-real","male"
"407","apprenticeship",26622,23,93,"female","7",1,687,6.53233429222235,0.19205833356779,"female-real","male"
"408","apprenticeship",17912,16,37,"female","4",1,591,6.3818160174061,-0.848356628169739,"male-real","male"
"409","apprenticeship",5939,6,10,"female","2",1,738,6.60394382460047,-1.34998527043605,"none","male"
"410","apprenticeship",10710,10,12,"female","4",1,609,6.4118182677099,-1.31282759323114,"female-real","male"
"411","apprenticeship",23426,20,190,"female","7",1,1152,7.04925484125584,1.99420567800601,"female-real","male"
"412","apprenticeship",24758,22,16,"female","4",1,635,6.45362499889269,-1.23851223882131,"female-real","male"
"413","apprenticeship",10067,9,74,"male","2",1,548,6.30627528694802,-0.160939599878871,"none","male"
"414","apprenticeship",12815,11,153,"female","7",1,1101,7.00397413672268,1.30678864971514,"female-real","male"
"415","apprenticeship",29657,26,40,"male","2",1,556,6.32076829425058,-0.792620112362371,"none","male"
"416","apprenticeship",19255,17,59,"male","7",1,568,6.34212141872115,-0.439622178915709,"male-real","male"
"417","apprenticeship",23863,21,50,"female","2",1,941,6.84694313958538,-0.606831726337812,"none","male"
"418","apprenticeship",8447,8,24,"male","2",1,977,6.88448665204278,-1.08988153000166,"none","male"
"419","apprenticeship",20225,18,35,"female","2",1,510,6.23441072571837,-0.88551430537465,"none","male"
"420","apprenticeship",9406,8,184,"male","4",1,664,6.49828214947643,1.88273264639127,"male-real","male"
"421","apprenticeship",27431,24,52,"female","2",1,548,6.30627528694802,-0.5696740491329,"none","male"
"422","apprenticeship",15009,13,105,"female","4",1,706,6.55961523749324,0.415004396797261,"female-real","male"
"423","apprenticeship",26281,23,54,"female","2",1,524,6.26149168432104,-0.532516371927989,"none","male"
"424","apprenticeship",29893,26,66,"male","4",1,707,6.56103066589657,-0.309570308698518,"female-real","male"
"425","apprenticeship",15497,14,20,"female","2",1,1195,7.08590146436561,-1.16419688441149,"none","male"
"426","apprenticeship",18096,16,60,"female","2",0,507,6.22851100359118,-0.421043340313253,"none","male"
"427","apprenticeship",11362,10,90,"female","2",1,696,6.54534966033442,0.136321817760423,"none","male"
"428","apprenticeship",29656,26,40,"male","2",1,556,6.32076829425058,-0.792620112362371,"none","male"
"429","apprenticeship",28733,25,69,"female","2",1,787,6.6682282484174,-0.253833792891151,"none","male"
"430","apprenticeship",6742,6,112,"female","4",1,566,6.33859407820318,0.545056267014452,"female-real","male"
"431","apprenticeship",28326,25,19,"female","4",1,670,6.50727771238501,-1.18277572301394,"female-real","male"
"432","apprenticeship",31065,27,66,"female","4",1,920,6.82437367004309,-0.309570308698518,"male-real","male"
"433","apprenticeship",8446,8,24,"male","2",1,977,6.88448665204278,-1.08988153000166,"none","male"
"434","apprenticeship",31894,28,27,"male","2",1,771,6.64768837356333,-1.0341450141943,"none","male"
"435","apprenticeship",5762,5,167,"female","7",1,670,6.50727771238501,1.56689239014952,"male-real","male"
"436","apprenticeship",17911,16,37,"female","4",1,591,6.3818160174061,-0.848356628169739,"male-real","male"
"437","apprenticeship",21693,19,69,"female","7",1,504,6.22257626807137,-0.253833792891151,"female-real","male"
"438","apprenticeship",1993,2,101,"female","4",1,988,6.89568269774787,0.340689042387437,"female-real","male"
"439","apprenticeship",32814,28,200,"male","7",1,915,6.81892406527552,2.17999406403057,"female-real","male"
"440","apprenticeship",28327,25,19,"female","4",1,670,6.50727771238501,-1.18277572301394,"female-real","male"
"441","apprenticeship",26378,23,65,"female","4",1,524,6.26149168432104,-0.328149147300974,"male-real","male"
"442","apprenticeship",14302,13,17,"female","7",1,786,6.66695679242921,-1.21993340021886,"male-real","male"
"443","apprenticeship",23955,21,61,"female","7",1,856,6.75227037614174,-0.402464501710798,"male-real","male"
"444","apprenticeship",23862,21,50,"female","2",1,941,6.84694313958538,-0.606831726337812,"none","male"
"445","apprenticeship",19256,17,59,"male","7",1,568,6.34212141872115,-0.439622178915709,"male-real","male"
"446","apprenticeship",16084,14,102,"female","4",1,738,6.60394382460047,0.359267880989893,"female-real","male"
"447","apprenticeship",3886,4,48,"male","4",1,930,6.8351845861473,-0.643989403542724,"male-real","male"
"448","apprenticeship",10711,10,12,"female","4",1,609,6.4118182677099,-1.31282759323114,"female-real","male"
"449","apprenticeship",10712,10,12,"female","4",1,609,6.4118182677099,-1.31282759323114,"female-real","male"
"450","apprenticeship",3098,3,90,"female","2",1,939,6.84481547920826,0.136321817760423,"none","male"
"451","apprenticeship",13107,12,16,"female","2",1,950,6.85646198459459,-1.23851223882131,"none","male"
"452","apprenticeship",29655,26,40,"male","2",1,556,6.32076829425058,-0.792620112362371,"none","male"
"453","apprenticeship",20226,18,35,"female","2",1,510,6.23441072571837,-0.88551430537465,"none","male"
"454","apprenticeship",15498,14,20,"female","2",1,1195,7.08590146436561,-1.16419688441149,"none","male"
"455","apprenticeship",7710,7,82,"female","2",1,580,6.36302810354046,-0.0123088910592243,"none","male"
"456","apprenticeship",16808,15,45,"female","2",1,805,6.69084227741856,-0.699725919350092,"none","male"
"457","apprenticeship",23954,21,61,"female","7",1,856,6.75227037614174,-0.402464501710798,"male-real","male"
"458","apprenticeship",28731,25,69,"female","2",1,787,6.6682282484174,-0.253833792891151,"none","male"
"459","apprenticeship",25290,22,76,"female","2",1,642,6.46458830368996,-0.12378192267396,"none","male"
"460","apprenticeship",15008,13,105,"female","4",1,706,6.55961523749324,0.415004396797261,"female-real","male"
"461","apprenticeship",8056,7,148,"female","7",1,505,6.22455842927536,1.21389445670286,"female-real","male"
"462","apprenticeship",14571,13,48,"female","2",1,775,6.65286302935335,-0.643989403542724,"none","male"
"463","apprenticeship",5062,5,48,"female","2",0,509,6.23244801655052,-0.643989403542724,"none","male"
"464","apprenticeship",5061,5,48,"female","2",0,509,6.23244801655052,-0.643989403542724,"none","male"
"465","apprenticeship",6911,6,157,"female","7",0,540,6.29156913955832,1.38110400412497,"male-real","male"
"466","apprenticeship",21666,19,66,"female","4",1,457,6.12468339089421,-0.309570308698518,"male-real","male"
"467","apprenticeship",16806,15,45,"female","2",1,805,6.69084227741856,-0.699725919350092,"none","male"
"468","apprenticeship",16807,15,45,"female","2",1,805,6.69084227741856,-0.699725919350092,"none","male"
"469","apprenticeship",31400,27,120,"female","7",1,726,6.5875500148248,0.693686975834099,"female-real","male"
"470","apprenticeship",27879,24,114,"female","7",1,694,6.5424719605068,0.582213944219364,"female-real","male"
"471","apprenticeship",29894,26,66,"male","4",1,707,6.56103066589657,-0.309570308698518,"female-real","male"
"472","apprenticeship",16161,14,123,"female","7",1,776,6.65415252018322,0.749423491641466,"male-real","male"
"473","apprenticeship",1991,2,101,"female","4",1,988,6.89568269774787,0.340689042387437,"female-real","male"
"474","apprenticeship",16083,14,102,"female","4",1,738,6.60394382460047,0.359267880989893,"female-real","male"
"475","apprenticeship",23861,21,50,"female","2",1,941,6.84694313958538,-0.606831726337812,"none","male"
"476","apprenticeship",29940,26,72,"male","7",1,759,6.63200177739563,-0.198097277083783,"male-real","male"
"477","apprenticeship",27430,24,52,"female","2",1,548,6.30627528694802,-0.5696740491329,"none","male"
"478","apprenticeship",12120,11,42,"female","4",1,689,6.53524127101366,-0.755462435157459,"male-real","male"
"479","apprenticeship",7708,7,82,"female","2",1,580,6.36302810354046,-0.0123088910592243,"none","male"
"480","apprenticeship",20300,18,45,"female","4",1,786,6.66695679242921,-0.699725919350092,"female-real","male"
"481","apprenticeship",12121,11,42,"female","4",1,689,6.53524127101366,-0.755462435157459,"male-real","male"
"482","apprenticeship",11745,10,178,"female","7",1,620,6.42971947803914,1.77125961477654,"male-real","male"
"483","apprenticeship",11746,10,178,"female","7",1,620,6.42971947803914,1.77125961477654,"male-real","male"
"484","apprenticeship",28732,25,69,"female","2",1,787,6.6682282484174,-0.253833792891151,"none","male"
"485","apprenticeship",5119,5,55,"female","4",1,590,6.38012253689976,-0.513937533325533,"female-real","male"
"486","apprenticeship",23425,20,190,"female","7",1,1152,7.04925484125584,1.99420567800601,"female-real","male"
"487","apprenticeship",8055,7,148,"female","7",1,505,6.22455842927536,1.21389445670286,"female-real","male"
"488","apprenticeship",14570,13,48,"female","2",1,775,6.65286302935335,-0.643989403542724,"none","male"
"489","apprenticeship",11360,10,90,"female","2",1,696,6.54534966033442,0.136321817760423,"none","male"
"490","apprenticeship",22699,20,52,"female","2",1,925,6.82979373751242,-0.5696740491329,"none","male"
"491","apprenticeship",3099,3,90,"female","2",1,939,6.84481547920826,0.136321817760423,"none","male"
"492","apprenticeship",24308,21,108,"female","4",1,644,6.46769872610435,0.470740912604628,"female-real","male"
"493","apprenticeship",15496,14,20,"female","2",1,1195,7.08590146436561,-1.16419688441149,"none","male"
"494","apprenticeship",13105,12,16,"female","2",1,950,6.85646198459459,-1.23851223882131,"none","male"
"495","apprenticeship",12122,11,42,"female","4",1,689,6.53524127101366,-0.755462435157459,"male-real","male"
"496","apprenticeship",24759,22,16,"female","4",1,635,6.45362499889269,-1.23851223882131,"female-real","male"
"497","apprenticeship",25289,22,76,"female","2",1,642,6.46458830368996,-0.12378192267396,"none","male"
"498","apprenticeship",12395,11,73,"female","2",1,571,6.34738920965601,-0.179518438481327,"none","male"
"499","apprenticeship",12393,11,73,"female","2",1,571,6.34738920965601,-0.179518438481327,"none","male"
"500","apprenticeship",29892,26,66,"male","4",1,707,6.56103066589657,-0.309570308698518,"female-real","male"
"501","apprenticeship",14303,13,17,"female","7",1,786,6.66695679242921,-1.21993340021886,"male-real","male"
"502","apprenticeship",16162,14,123,"female","7",1,776,6.65415252018322,0.749423491641466,"male-real","male"
"503","apprenticeship",18097,16,60,"female","2",0,507,6.22851100359118,-0.421043340313253,"none","male"
"504","apprenticeship",3887,4,48,"male","4",1,930,6.8351845861473,-0.643989403542724,"male-real","male"
"505","apprenticeship",21692,19,69,"female","7",1,504,6.22257626807137,-0.253833792891151,"female-real","male"
"506","apprenticeship",21665,19,66,"female","4",1,457,6.12468339089421,-0.309570308698518,"male-real","male"
"507","apprenticeship",31067,27,66,"female","4",1,920,6.82437367004309,-0.309570308698518,"male-real","male"
"508","apprenticeship",31066,27,66,"female","4",1,920,6.82437367004309,-0.309570308698518,"male-real","male"
"509","apprenticeship",21020,18,165,"female","7",1,599,6.39526159811545,1.52973471294461,"male-real","male"
"510","apprenticeship",5941,6,10,"female","2",1,738,6.60394382460047,-1.34998527043605,"none","male"
"511","apprenticeship",6741,6,112,"female","4",1,566,6.33859407820318,0.545056267014452,"female-real","male"
"512","apprenticeship",31401,27,120,"female","7",1,726,6.5875500148248,0.693686975834099,"female-real","male"
"513","apprenticeship",25288,22,76,"female","2",1,642,6.46458830368996,-0.12378192267396,"none","male"
"514","apprenticeship",32550,28,133,"male","4",1,711,6.56667242980324,0.935211877666025,"male-real","male"
"515","apprenticeship",32549,28,133,"male","4",1,711,6.56667242980324,0.935211877666025,"male-real","male"
"516","apprenticeship",1992,2,101,"female","4",1,988,6.89568269774787,0.340689042387437,"female-real","male"
"517","apprenticeship",9405,8,184,"male","4",1,664,6.49828214947643,1.88273264639127,"male-real","male"
"518","apprenticeship",26377,23,65,"female","4",1,524,6.26149168432104,-0.328149147300974,"male-real","male"
"519","apprenticeship",22701,20,52,"female","2",1,925,6.82979373751242,-0.5696740491329,"none","male"
"520","apprenticeship",17424,15,141,"female","7",1,661,6.49375383985169,1.08384258648567,"female-real","male"
"521","apprenticeship",20301,18,45,"female","4",1,786,6.66695679242921,-0.699725919350092,"female-real","male"
"522","apprenticeship",20302,18,45,"female","4",1,786,6.66695679242921,-0.699725919350092,"female-real","male"
"523","apprenticeship",5117,5,55,"female","4",1,590,6.38012253689976,-0.513937533325533,"female-real","male"
"524","apprenticeship",5940,6,10,"female","2",1,738,6.60394382460047,-1.34998527043605,"none","male"
"525","apprenticeship",14569,13,48,"female","2",1,775,6.65286302935335,-0.643989403542724,"none","male"
"526","apprenticeship",29025,25,104,"female","7",1,857,6.75343791859778,0.396425558194805,"male-real","male"
"527","apprenticeship",21021,18,165,"female","7",1,599,6.39526159811545,1.52973471294461,"male-real","male"
"528","apprenticeship",28108,24,178,"female","4",1,762,6.63594655568665,1.77125961477654,"male-real","male"
"529","apprenticeship",31324,27,100,"female","2",1,832,6.72383244082121,0.322110203784981,"none","male"
"530","apprenticeship",28328,25,19,"female","4",1,670,6.50727771238501,-1.18277572301394,"female-real","male"
"531","apprenticeship",22700,20,52,"female","2",1,925,6.82979373751242,-0.5696740491329,"none","male"
"532","apprenticeship",3687,4,23,"male","7",1,597,6.3919171133926,-1.10846036860412,"female-real","male"
"533","apprenticeship",6910,6,157,"female","7",0,540,6.29156913955832,1.38110400412497,"male-real","male"
"534","apprenticeship",13754,12,94,"female","7",1,859,6.75576892198425,0.210637172170246,"female-real","male"
"535","apprenticeship",13755,12,94,"female","7",1,859,6.75576892198425,0.210637172170246,"female-real","male"
"536","apprenticeship",24743,22,14,"female","7",0,596,6.39024066706535,-1.27566991602622,"male-real","male"
"537","apprenticeship",29942,26,72,"male","7",1,759,6.63200177739563,-0.198097277083783,"male-real","male"
"538","apprenticeship",24744,22,14,"female","7",0,596,6.39024066706535,-1.27566991602622,"male-real","male"
"539","apprenticeship",21667,19,66,"female","4",1,457,6.12468339089421,-0.309570308698518,"male-real","male"
"540","apprenticeship",27878,24,114,"female","7",1,694,6.5424719605068,0.582213944219364,"female-real","male"
"541","apprenticeship",1026,1,155,"female","7",0,569,6.34388043412633,1.34394632692005,"male-real","male"
"542","apprenticeship",28109,24,178,"female","4",1,762,6.63594655568665,1.77125961477654,"male-real","male"
"543","apprenticeship",9468,9,2,"male","4",1,756,6.62804137617953,-1.49861597925569,"female-real","male"
"544","apprenticeship",9469,9,2,"male","4",1,756,6.62804137617953,-1.49861597925569,"female-real","male"
"545","apprenticeship",27429,24,52,"female","2",1,548,6.30627528694802,-0.5696740491329,"none","male"
"546","apprenticeship",5060,5,48,"female","2",0,509,6.23244801655052,-0.643989403542724,"none","male"
"547","apprenticeship",26283,23,54,"female","2",1,524,6.26149168432104,-0.532516371927989,"none","male"
"548","apprenticeship",26282,23,54,"female","2",1,524,6.26149168432104,-0.532516371927989,"none","male"
"549","apprenticeship",7709,7,82,"female","2",1,580,6.36302810354046,-0.0123088910592243,"none","male"
"550","apprenticeship",31896,28,27,"male","2",1,771,6.64768837356333,-1.0341450141943,"none","male"
"551","apprenticeship",20224,18,35,"female","2",1,510,6.23441072571837,-0.88551430537465,"none","male"
"552","apprenticeship",18441,16,102,"female","7",1,653,6.48157712927643,0.359267880989893,"female-real","male"
"553","apprenticeship",5118,5,55,"female","4",1,590,6.38012253689976,-0.513937533325533,"female-real","male"
"554","apprenticeship",1025,1,155,"female","7",0,569,6.34388043412633,1.34394632692005,"male-real","male"
"555","apprenticeship",3220,3,107,"female","4",1,861,6.75809450442773,0.452162074002173,"male-real","male"
"556","apprenticeship",14304,13,17,"female","7",1,786,6.66695679242921,-1.21993340021886,"male-real","male"
"557","apprenticeship",5761,5,167,"female","7",1,670,6.50727771238501,1.56689239014952,"male-real","male"
"558","apprenticeship",3219,3,107,"female","4",1,861,6.75809450442773,0.452162074002173,"male-real","male"
"559","apprenticeship",10066,9,74,"male","2",1,548,6.30627528694802,-0.160939599878871,"none","male"
"560","apprenticeship",24309,21,108,"female","4",1,644,6.46769872610435,0.470740912604628,"female-real","male"
"561","apprenticeship",17425,15,141,"female","7",1,661,6.49375383985169,1.08384258648567,"female-real","male"
"562","apprenticeship",8003,7,134,"female","4",1,585,6.37161184723186,0.953790716268481,"male-real","male"
"563","apprenticeship",23230,20,133,"female","4",1,721,6.58063913728495,0.935211877666025,"male-real","male"
"564","apprenticeship",13756,12,94,"female","7",1,859,6.75576892198425,0.210637172170246,"female-real","male"
"565","apprenticeship",29024,25,104,"female","7",1,857,6.75343791859778,0.396425558194805,"male-real","male"
"566","apprenticeship",13106,12,16,"female","2",1,950,6.85646198459459,-1.23851223882131,"none","male"
"567","apprenticeship",26379,23,65,"female","4",1,524,6.26149168432104,-0.328149147300974,"male-real","male"
"568","apprenticeship",3885,4,48,"male","4",1,930,6.8351845861473,-0.643989403542724,"male-real","male"
"569","apprenticeship",12394,11,73,"female","2",1,571,6.34738920965601,-0.179518438481327,"none","male"
"570","apprenticeship",3097,3,90,"female","2",1,939,6.84481547920826,0.136321817760423,"none","male"
"571","apprenticeship",24742,22,14,"female","7",0,596,6.39024066706535,-1.27566991602622,"male-real","male"
"572","apprenticeship",31325,27,100,"female","2",1,832,6.72383244082121,0.322110203784981,"none","male"
"573","apprenticeship",31895,28,27,"male","2",1,771,6.64768837356333,-1.0341450141943,"none","male"
"574","apprenticeship",8448,8,24,"male","2",1,977,6.88448665204278,-1.08988153000166,"none","male"
"575","apprenticeship",23229,20,133,"female","4",1,721,6.58063913728495,0.935211877666025,"male-real","male"
"576","apprenticeship",29941,26,72,"male","7",1,759,6.63200177739563,-0.198097277083783,"male-real","male"
"577","apprenticeship",18440,16,102,"female","7",1,653,6.48157712927643,0.359267880989893,"female-real","male"
"578","apprenticeship",10065,9,74,"male","2",1,548,6.30627528694802,-0.160939599878871,"none","male"
"579","apprenticeship",31326,27,100,"female","2",1,832,6.72383244082121,0.322110203784981,"none","male"
"580","apprenticeship",23956,21,61,"female","7",1,856,6.75227037614174,-0.402464501710798,"male-real","male"
"781","assistant",30501,26,186,"male","4",1,764,6.63856778916652,1.91989032359619,"female-real","female"
"782","assistant",16000,14,92,"female","7",1,648,6.47389069635227,0.173479494965334,"male-real","female"
"783","assistant",29032,25,106,"female","4",1,732,6.59578051396131,0.433583235399717,"female-real","female"
"784","assistant",18463,16,107,"female","4",1,659,6.49072353450251,0.452162074002173,"male-real","female"
"785","assistant",22754,20,59,"female","2",1,806,6.69208374250663,-0.439622178915709,"none","female"
"786","assistant",7983,7,129,"female","7",1,701,6.55250788703459,0.860896523256202,"female-real","female"
"787","assistant",21165,19,4,"female","2",1,478,6.16961073249146,-1.46145830205078,"none","female"
"788","assistant",22753,20,59,"female","2",1,806,6.69208374250663,-0.439622178915709,"none","female"
"789","assistant",8376,8,15,"male","2",1,661,6.49375383985169,-1.25709107742377,"none","female"
"790","assistant",7984,7,129,"female","7",1,701,6.55250788703459,0.860896523256202,"female-real","female"
"791","assistant",6644,6,94,"female","7",1,708,6.56244409369372,0.210637172170246,"male-real","female"
"792","assistant",6646,6,94,"female","7",1,708,6.56244409369372,0.210637172170246,"male-real","female"
"793","assistant",2460,3,11,"female","2",1,613,6.41836493593621,-1.33140643183359,"none","female"
"794","assistant",26390,23,66,"female","2",1,598,6.39359075395063,-0.309570308698518,"none","female"
"795","assistant",17023,15,69,"female","7",1,839,6.73221070646721,-0.253833792891151,"female-real","female"
"796","assistant",2462,3,11,"female","7",1,497,6.20859002609663,-1.33140643183359,"female-real","female"
"797","assistant",21163,19,4,"female","2",1,478,6.16961073249146,-1.46145830205078,"none","female"
"798","assistant",15999,14,92,"female","7",1,648,6.47389069635227,0.173479494965334,"male-real","female"
"799","assistant",15093,13,128,"female","4",1,644,6.46769872610435,0.842317684653746,"female-real","female"
"800","assistant",20378,18,55,"female","7",1,627,6.44094654063292,-0.513937533325533,"male-real","female"
"801","assistant",28546,25,46,"female","7",1,698,6.54821910276237,-0.681147080747636,"male-real","female"
"802","assistant",5453,5,94,"female","4",1,693,6.5410299991899,0.210637172170246,"female-real","female"
"803","assistant",24416,21,138,"female","7",1,560,6.32793678372919,1.0281060706783,"male-real","female"
"804","assistant",4338,4,107,"male","4",1,548,6.30627528694802,0.452162074002173,"male-real","female"
"805","assistant",5455,5,94,"female","4",1,693,6.5410299991899,0.210637172170246,"female-real","female"
"806","assistant",25176,22,63,"female","2",1,514,6.24222326545517,-0.365306824505886,"none","female"
"807","assistant",2459,3,11,"female","2",1,613,6.41836493593621,-1.33140643183359,"none","female"
"808","assistant",19061,17,35,"male","7",1,584,6.36990098282823,-0.88551430537465,"male-real","female"
"809","assistant",20380,18,55,"female","7",1,627,6.44094654063292,-0.513937533325533,"male-real","female"
"810","assistant",22755,20,59,"female","2",1,806,6.69208374250663,-0.439622178915709,"none","female"
"811","assistant",8648,8,49,"male","4",1,587,6.3750248198281,-0.625410564940268,"male-real","female"
"812","assistant",1963,2,97,"female","4",1,607,6.4085287910595,0.266373687977614,"female-real","female"
"813","assistant",4337,4,107,"male","4",1,548,6.30627528694802,0.452162074002173,"male-real","female"
"814","assistant",27657,24,80,"female","7",1,681,6.52356230614951,-0.049466568264136,"female-real","female"
"815","assistant",7547,7,62,"female","4",1,437,6.07993319509559,-0.383885663108342,"male-real","female"
"816","assistant",26951,23,176,"female","7",1,655,6.48463523563525,1.73410193757163,"female-real","female"
"817","assistant",6660,6,96,"female","2",0,416,6.03068526026126,0.247794849375158,"none","female"
"818","assistant",23917,21,56,"female","2",1,525,6.26339826259162,-0.495358694723077,"none","female"
"819","assistant",25175,22,63,"female","2",1,514,6.24222326545517,-0.365306824505886,"none","female"
"820","assistant",1962,2,97,"female","4",1,607,6.4085287910595,0.266373687977614,"female-real","female"
"821","assistant",29945,26,73,"male","2",1,667,6.50279004591562,-0.179518438481327,"none","female"
"822","assistant",26389,23,66,"female","2",1,598,6.39359075395063,-0.309570308698518,"none","female"
"823","assistant",9894,9,53,"male","2",1,569,6.34388043412633,-0.551095210530445,"none","female"
"824","assistant",18462,16,107,"female","4",1,659,6.49072353450251,0.452162074002173,"male-real","female"
"825","assistant",23245,20,137,"female","4",1,753,6.62406522779989,1.00952723207585,"male-real","female"
"826","assistant",9499,9,6,"male","7",1,539,6.289715570909,-1.42430062484587,"male-real","female"
"827","assistant",2463,3,11,"female","7",1,497,6.20859002609663,-1.33140643183359,"female-real","female"
"828","assistant",4020,4,63,"male","7",1,624,6.43615036836943,-0.365306824505886,"female-real","female"
"829","assistant",7548,7,62,"female","4",1,437,6.07993319509559,-0.383885663108342,"male-real","female"
"830","assistant",11885,11,9,"female","4",1,912,6.81563999007433,-1.3685641090385,"male-real","female"
"831","assistant",23916,21,56,"female","2",1,525,6.26339826259162,-0.495358694723077,"none","female"
"832","assistant",11884,11,9,"female","4",1,912,6.81563999007433,-1.3685641090385,"male-real","female"
"833","assistant",29943,26,73,"male","2",1,667,6.50279004591562,-0.179518438481327,"none","female"
"834","assistant",14831,13,82,"female","2",1,558,6.32435896238131,-0.0123088910592243,"none","female"
"835","assistant",16423,14,192,"female","4",1,545,6.30078579466324,2.03136335521092,"female-real","female"
"836","assistant",17757,16,19,"female","2",1,470,6.1527326947041,-1.18277572301394,"none","female"
"837","assistant",19093,17,39,"male","2",1,765,6.63987583382654,-0.811198950964827,"none","female"
"838","assistant",26391,23,66,"female","2",1,598,6.39359075395063,-0.309570308698518,"none","female"
"839","assistant",6645,6,94,"female","7",1,708,6.56244409369372,0.210637172170246,"male-real","female"
"840","assistant",25174,22,63,"female","2",1,514,6.24222326545517,-0.365306824505886,"none","female"
"841","assistant",27656,24,80,"female","7",1,681,6.52356230614951,-0.049466568264136,"female-real","female"
"842","assistant",14830,13,82,"female","2",1,558,6.32435896238131,-0.0123088910592243,"none","female"
"843","assistant",1833,2,80,"female","2",1,588,6.37672694789863,-0.049466568264136,"none","female"
"844","assistant",1831,2,80,"female","2",1,588,6.37672694789863,-0.049466568264136,"none","female"
"845","assistant",27719,24,87,"female","4",1,647,6.4723462945009,0.080585301953055,"male-real","female"
"846","assistant",29033,25,106,"female","4",1,732,6.59578051396131,0.433583235399717,"female-real","female"
"847","assistant",20149,18,25,"female","4",1,661,6.49375383985169,-1.07130269139921,"female-real","female"
"848","assistant",29944,26,73,"male","2",1,667,6.50279004591562,-0.179518438481327,"none","female"
"849","assistant",10854,10,28,"female","2",1,521,6.25575004175337,-1.01556617559184,"none","female"
"850","assistant",10855,10,28,"female","2",1,521,6.25575004175337,-1.01556617559184,"none","female"
"851","assistant",23246,20,137,"female","4",1,753,6.62406522779989,1.00952723207585,"male-real","female"
"852","assistant",22134,19,149,"female","7",1,635,6.45362499889269,1.23247329530532,"female-real","female"
"853","assistant",10856,10,28,"female","2",1,521,6.25575004175337,-1.01556617559184,"none","female"
"854","assistant",19515,17,91,"male","4",1,530,6.27287700654617,0.154900656362879,"female-real","female"
"855","assistant",23915,21,56,"female","2",1,525,6.26339826259162,-0.495358694723077,"none","female"
"856","assistant",707,1,88,"female","7",0,399,5.98896141688986,0.0991641405555109,"male-real","female"
"857","assistant",4847,5,22,"female","2",1,567,6.34035930372775,-1.12703920720658,"none","female"
"858","assistant",13917,12,127,"female","4",1,658,6.48920493132532,0.82373884605129,"male-real","female"
"859","assistant",1832,2,80,"female","2",1,588,6.37672694789863,-0.049466568264136,"none","female"
"860","assistant",28545,25,46,"female","7",1,698,6.54821910276237,-0.681147080747636,"male-real","female"
"861","assistant",14816,13,81,"female","7",1,760,6.63331843328038,-0.0308877296616802,"male-real","female"
"862","assistant",17022,15,69,"female","7",1,839,6.73221070646721,-0.253833792891151,"female-real","female"
"863","assistant",12034,11,29,"female","2",1,933,6.83840520084734,-0.996987336989386,"none","female"
"864","assistant",9893,9,53,"male","2",1,569,6.34388043412633,-0.551095210530445,"none","female"
"865","assistant",19969,18,2,"female","2",1,566,6.33859407820318,-1.49861597925569,"none","female"
"866","assistant",11677,10,159,"female","7",1,647,6.4723462945009,1.41826168132988,"male-real","female"
"867","assistant",19514,17,91,"male","4",1,530,6.27287700654617,0.154900656362879,"female-real","female"
"868","assistant",4021,4,63,"male","7",1,624,6.43615036836943,-0.365306824505886,"female-real","female"
"869","assistant",2072,2,120,"female","7",1,680,6.52209279817015,0.693686975834099,"male-real","female"
"870","assistant",27720,24,87,"female","4",1,647,6.4723462945009,0.080585301953055,"male-real","female"
"871","assistant",2071,2,120,"female","7",1,680,6.52209279817015,0.693686975834099,"male-real","female"
"872","assistant",9497,9,6,"male","7",1,539,6.289715570909,-1.42430062484587,"male-real","female"
"873","assistant",4022,4,63,"male","7",1,624,6.43615036836943,-0.365306824505886,"female-real","female"
"874","assistant",12035,11,29,"female","2",1,933,6.83840520084734,-0.996987336989386,"none","female"
"875","assistant",19513,17,91,"male","4",1,530,6.27287700654617,0.154900656362879,"female-real","female"
"876","assistant",31180,27,81,"female","7",1,665,6.49978704065585,-0.0308877296616802,"female-real","female"
"877","assistant",27655,24,80,"female","7",1,681,6.52356230614951,-0.049466568264136,"female-real","female"
"878","assistant",32581,28,141,"male","4",1,850,6.74523634948436,1.08384258648567,"male-real","female"
"879","assistant",15094,13,128,"female","4",1,644,6.46769872610435,0.842317684653746,"female-real","female"
"880","assistant",9498,9,6,"male","7",1,539,6.289715570909,-1.42430062484587,"male-real","female"
"881","assistant",26805,23,135,"female","4",1,563,6.33327962813969,0.972369554870937,"male-real","female"
"882","assistant",20150,18,25,"female","4",1,661,6.49375383985169,-1.07130269139921,"female-real","female"
"883","assistant",5454,5,94,"female","4",1,693,6.5410299991899,0.210637172170246,"female-real","female"
"884","assistant",6659,6,96,"female","2",0,416,6.03068526026126,0.247794849375158,"none","female"
"885","assistant",30502,26,186,"male","4",1,764,6.63856778916652,1.91989032359619,"female-real","female"
"886","assistant",26950,23,176,"female","7",1,655,6.48463523563525,1.73410193757163,"female-real","female"
"887","assistant",1961,2,97,"female","4",1,607,6.4085287910595,0.266373687977614,"female-real","female"
"888","assistant",20379,18,55,"female","7",1,627,6.44094654063292,-0.513937533325533,"male-real","female"
"889","assistant",30910,27,48,"female","4",1,955,6.86171134048073,-0.643989403542724,"male-real","female"
"890","assistant",31760,28,9,"male","7",1,854,6.74993119378857,-1.3685641090385,"female-real","female"
"891","assistant",19970,18,2,"female","2",1,566,6.33859407820318,-1.49861597925569,"none","female"
"892","assistant",7546,7,62,"female","4",1,437,6.07993319509559,-0.383885663108342,"male-real","female"
"893","assistant",2464,3,11,"female","7",1,497,6.20859002609663,-1.33140643183359,"female-real","female"
"894","assistant",30567,27,4,"female","2",1,732,6.59578051396131,-1.46145830205078,"none","female"
"895","assistant",14829,13,82,"female","2",1,558,6.32435896238131,-0.0123088910592243,"none","female"
"896","assistant",28544,25,46,"female","7",1,698,6.54821910276237,-0.681147080747636,"male-real","female"
"897","assistant",32172,28,63,"male","2",1,798,6.68210859744981,-0.365306824505886,"none","female"
"898","assistant",19094,17,39,"male","2",1,765,6.63987583382654,-0.811198950964827,"none","female"
"899","assistant",705,1,88,"female","7",0,399,5.98896141688986,0.0991641405555109,"male-real","female"
"900","assistant",17121,15,83,"female","2",1,706,6.55961523749324,0.00626994754323157,"none","female"
"901","assistant",6661,6,96,"female","2",0,416,6.03068526026126,0.247794849375158,"none","female"
"902","assistant",6876,6,148,"female","4",1,590,6.38012253689976,1.21389445670286,"female-real","female"
"903","assistant",17805,16,24,"female","7",1,595,6.38856140554563,-1.08988153000166,"female-real","female"
"904","assistant",12033,11,29,"female","2",1,933,6.83840520084734,-0.996987336989386,"none","female"
"905","assistant",13803,12,100,"female","2",1,657,6.48768401848461,0.322110203784981,"none","female"
"906","assistant",17024,15,69,"female","7",1,839,6.73221070646721,-0.253833792891151,"female-real","female"
"907","assistant",31179,27,81,"female","7",1,665,6.49978704065585,-0.0308877296616802,"female-real","female"
"908","assistant",13804,12,100,"female","2",1,657,6.48768401848461,0.322110203784981,"none","female"
"909","assistant",22133,19,149,"female","7",1,635,6.45362499889269,1.23247329530532,"female-real","female"
"910","assistant",11678,10,159,"female","7",1,647,6.4723462945009,1.41826168132988,"male-real","female"
"911","assistant",30911,27,48,"female","4",1,955,6.86171134048073,-0.643989403542724,"male-real","female"
"912","assistant",15661,14,44,"female","2",1,578,6.35957386867238,-0.718304757952547,"none","female"
"913","assistant",19092,17,39,"male","2",1,765,6.63987583382654,-0.811198950964827,"none","female"
"914","assistant",26806,23,135,"female","4",1,563,6.33327962813969,0.972369554870937,"male-real","female"
"915","assistant",32171,28,63,"male","2",1,798,6.68210859744981,-0.365306824505886,"none","female"
"916","assistant",16594,15,18,"female","4",1,798,6.68210859744981,-1.2013545616164,"male-real","female"
"917","assistant",17807,16,24,"female","7",1,595,6.38856140554563,-1.08988153000166,"female-real","female"
"918","assistant",9895,9,53,"male","2",1,569,6.34388043412633,-0.551095210530445,"none","female"
"919","assistant",8647,8,49,"male","4",1,587,6.3750248198281,-0.625410564940268,"male-real","female"
"920","assistant",2461,3,11,"female","2",1,613,6.41836493593621,-1.33140643183359,"none","female"
"921","assistant",17759,16,19,"female","2",1,470,6.1527326947041,-1.18277572301394,"none","female"
"922","assistant",10985,10,42,"female","4",1,680,6.52209279817015,-0.755462435157459,"female-real","female"
"923","assistant",3760,4,33,"male","2",1,587,6.3750248198281,-0.922671982579562,"none","female"
"924","assistant",21800,19,83,"female","4",1,841,6.73459165997295,0.00626994754323157,"male-real","female"
"925","assistant",583,1,74,"female","4",1,487,6.18826412308259,-0.160939599878871,"female-real","female"
"926","assistant",16424,14,192,"female","4",1,545,6.30078579466324,2.03136335521092,"female-real","female"
"927","assistant",32582,28,141,"male","4",1,850,6.74523634948436,1.08384258648567,"male-real","female"
"928","assistant",15663,14,44,"female","2",1,578,6.35957386867238,-0.718304757952547,"none","female"
"929","assistant",5783,5,174,"female","7",1,752,6.62273632394984,1.69694426036672,"male-real","female"
"930","assistant",28719,25,68,"female","2",1,605,6.40522845803084,-0.272412631493607,"none","female"
"931","assistant",16592,15,18,"female","4",1,798,6.68210859744981,-1.2013545616164,"male-real","female"
"932","assistant",30909,27,48,"female","4",1,955,6.86171134048073,-0.643989403542724,"male-real","female"
"933","assistant",31762,28,9,"male","7",1,854,6.74993119378857,-1.3685641090385,"female-real","female"
"934","assistant",31761,28,9,"male","7",1,854,6.74993119378857,-1.3685641090385,"female-real","female"
"935","assistant",10983,10,42,"female","4",1,680,6.52209279817015,-0.755462435157459,"female-real","female"
"936","assistant",23134,20,108,"female","7",1,767,6.64248680136726,0.470740912604628,"female-real","female"
"937","assistant",3759,4,33,"male","2",1,587,6.3750248198281,-0.922671982579562,"none","female"
"938","assistant",17120,15,83,"female","2",1,706,6.55961523749324,0.00626994754323157,"none","female"
"939","assistant",19063,17,35,"male","7",1,584,6.36990098282823,-0.88551430537465,"male-real","female"
"940","assistant",17119,15,83,"female","2",1,706,6.55961523749324,0.00626994754323157,"none","female"
"941","assistant",584,1,74,"female","4",1,487,6.18826412308259,-0.160939599878871,"female-real","female"
"942","assistant",582,1,74,"female","4",1,487,6.18826412308259,-0.160939599878871,"female-real","female"
"943","assistant",13802,12,100,"female","2",1,657,6.48768401848461,0.322110203784981,"none","female"
"944","assistant",28721,25,68,"female","2",1,605,6.40522845803084,-0.272412631493607,"none","female"
"945","assistant",17806,16,24,"female","7",1,595,6.38856140554563,-1.08988153000166,"female-real","female"
"946","assistant",23133,20,108,"female","7",1,767,6.64248680136726,0.470740912604628,"female-real","female"
"947","assistant",706,1,88,"female","7",0,399,5.98896141688986,0.0991641405555109,"male-real","female"
"948","assistant",10463,9,152,"male","4",1,517,6.24804287450843,1.28820981111269,"female-real","female"
"949","assistant",28720,25,68,"female","2",1,605,6.40522845803084,-0.272412631493607,"none","female"
"950","assistant",27718,24,87,"female","4",1,647,6.4723462945009,0.080585301953055,"male-real","female"
"951","assistant",16593,15,18,"female","4",1,798,6.68210859744981,-1.2013545616164,"male-real","female"
"952","assistant",13918,12,127,"female","4",1,658,6.48920493132532,0.82373884605129,"male-real","female"
"953","assistant",30468,26,176,"male","7",1,537,6.28599809450886,1.73410193757163,"male-real","female"
"954","assistant",8374,8,15,"male","2",1,661,6.49375383985169,-1.25709107742377,"none","female"
"955","assistant",4848,5,22,"female","2",1,567,6.34035930372775,-1.12703920720658,"none","female"
"956","assistant",21164,19,4,"female","2",1,478,6.16961073249146,-1.46145830205078,"none","female"
"957","assistant",6877,6,148,"female","4",1,590,6.38012253689976,1.21389445670286,"female-real","female"
"958","assistant",19062,17,35,"male","7",1,584,6.36990098282823,-0.88551430537465,"male-real","female"
"959","assistant",17758,16,19,"female","2",1,470,6.1527326947041,-1.18277572301394,"none","female"
"960","assistant",453,1,60,"female","2",1,373,5.92157841964382,-0.421043340313253,"none","female"
"961","assistant",8375,8,15,"male","2",1,661,6.49375383985169,-1.25709107742377,"none","female"
"962","assistant",30566,27,4,"female","2",1,732,6.59578051396131,-1.46145830205078,"none","female"
"963","assistant",32170,28,63,"male","2",1,798,6.68210859744981,-0.365306824505886,"none","female"
"964","assistant",7749,7,86,"female","2",1,669,6.50578406012823,0.0620064633505992,"none","female"
"965","assistant",5784,5,174,"female","7",1,752,6.62273632394984,1.69694426036672,"male-real","female"
"966","assistant",3478,3,177,"female","4",1,639,6.45990445437753,1.75268077617408,"male-real","female"
"967","assistant",21799,19,83,"female","4",1,841,6.73459165997295,0.00626994754323157,"male-real","female"
"968","assistant",3761,4,33,"male","2",1,587,6.3750248198281,-0.922671982579562,"none","female"
"969","assistant",10984,10,42,"female","4",1,680,6.52209279817015,-0.755462435157459,"female-real","female"
"970","assistant",21801,19,83,"female","4",1,841,6.73459165997295,0.00626994754323157,"male-real","female"
"971","assistant",3477,3,177,"female","4",1,639,6.45990445437753,1.75268077617408,"male-real","female"
"972","assistant",14814,13,81,"female","7",1,760,6.63331843328038,-0.0308877296616802,"male-real","female"
"973","assistant",14815,13,81,"female","7",1,760,6.63331843328038,-0.0308877296616802,"male-real","female"
"974","assistant",15662,14,44,"female","2",1,578,6.35957386867238,-0.718304757952547,"none","female"
"975","assistant",455,1,60,"female","2",1,373,5.92157841964382,-0.421043340313253,"none","female"
"976","assistant",13709,12,88,"female","7",1,861,6.75809450442773,0.0991641405555109,"female-real","female"
"977","assistant",13710,12,88,"female","7",1,861,6.75809450442773,0.0991641405555109,"female-real","female"
"978","assistant",454,1,60,"female","2",1,373,5.92157841964382,-0.421043340313253,"none","female"
"979","assistant",7747,7,86,"female","2",1,669,6.50578406012823,0.0620064633505992,"none","female"
"980","assistant",7748,7,86,"female","2",1,669,6.50578406012823,0.0620064633505992,"none","female"
"981","auntie",29606,26,34,"male","4",1,684,6.52795791762255,-0.904093143977106,"female-real","female"
"982","auntie",23824,21,45,"female","2",1,577,6.3578422665081,-0.699725919350092,"none","female"
"983","auntie",23823,21,45,"female","2",1,577,6.3578422665081,-0.699725919350092,"none","female"
"984","auntie",22725,20,55,"female","2",1,773,6.65027904858742,-0.513937533325533,"none","female"
"985","auntie",5954,6,12,"female","2",0,659,6.49072353450251,-1.31282759323114,"none","female"
"986","auntie",4132,4,77,"male","2",1,569,6.34388043412633,-0.105203084071504,"none","female"
"987","auntie",9720,9,32,"male","4",1,800,6.68461172766793,-0.941250821182018,"female-real","female"
"988","auntie",22723,20,55,"female","2",1,773,6.65027904858742,-0.513937533325533,"none","female"
"989","auntie",29605,26,34,"male","4",1,684,6.52795791762255,-0.904093143977106,"female-real","female"
"990","auntie",21823,19,85,"female","2",1,511,6.2363695902037,0.0434276247481433,"none","female"
"991","auntie",200,1,31,"female","7",1,576,6.35610766069589,-0.959829659784474,"male-real","female"
"992","auntie",19285,17,64,"male","2",1,818,6.70686233660275,-0.34672798590343,"none","female"
"993","auntie",15885,14,74,"female","4",1,912,6.81563999007433,-0.160939599878871,"female-real","female"
"994","auntie",23094,20,100,"female","4",1,710,6.56526497003536,0.322110203784981,"male-real","female"
"995","auntie",2758,3,48,"female","2",1,615,6.42162226780652,-0.643989403542724,"none","female"
"996","auntie",19284,17,64,"male","2",1,818,6.70686233660275,-0.34672798590343,"none","female"
"997","auntie",21825,19,85,"female","2",1,511,6.2363695902037,0.0434276247481433,"none","female"
"998","auntie",17865,16,32,"female","2",1,782,6.66185474054531,-0.941250821182018,"none","female"
"999","auntie",25559,22,120,"female","4",1,681,6.52356230614951,0.693686975834099,"female-real","female"
"1000","auntie",1633,2,58,"female","2",1,606,6.40687998606931,-0.458201017518165,"none","female"
"1001","auntie",20585,18,79,"female","4",1,664,6.49828214947643,-0.0680454068665919,"female-real","female"
"1002","auntie",32456,28,110,"male","4",1,621,6.43133108193348,0.50789858980954,"male-real","female"
"1003","auntie",9721,9,32,"male","4",1,800,6.68461172766793,-0.941250821182018,"female-real","female"
"1004","auntie",30428,26,165,"male","7",0,529,6.2709884318583,1.52973471294461,"male-real","female"
"1005","auntie",29333,25,195,"female","4",1,666,6.50128967054039,2.08709987101829,"female-real","female"
"1006","auntie",32455,28,110,"male","4",1,621,6.43133108193348,0.50789858980954,"male-real","female"
"1007","auntie",11680,10,160,"female","4",1,707,6.56103066589657,1.43684051993233,"female-real","female"
"1008","auntie",5956,6,12,"female","2",0,659,6.49072353450251,-1.31282759323114,"none","female"
"1009","auntie",23093,20,100,"female","4",1,710,6.56526497003536,0.322110203784981,"male-real","female"
"1010","auntie",14741,13,70,"female","4",1,650,6.47697236288968,-0.235254954288695,"female-real","female"
"1011","auntie",22724,20,55,"female","2",1,773,6.65027904858742,-0.513937533325533,"none","female"
"1012","auntie",25839,22,194,"female","7",1,582,6.36647044773144,2.06852103241583,"male-real","female"
"1013","auntie",7770,7,88,"female","4",0,715,6.57228254269401,0.0991641405555109,"male-real","female"
"1014","auntie",11856,11,5,"female","2",1,629,6.44413125670044,-1.44287946344833,"none","female"
"1015","auntie",25390,22,89,"female","2",1,603,6.40191719672719,0.117742979157967,"none","female"
"1016","auntie",1634,2,58,"female","2",1,606,6.40687998606931,-0.458201017518165,"none","female"
"1017","auntie",16903,15,55,"female","7",1,811,6.69826805411541,-0.513937533325533,"female-real","female"
"1018","auntie",13519,12,64,"female","2",1,1049,6.9555926083963,-0.34672798590343,"none","female"
"1019","auntie",17866,16,32,"female","2",1,782,6.66185474054531,-0.941250821182018,"none","female"
"1020","auntie",4815,5,18,"female","4",1,677,6.51767127291227,-1.2013545616164,"female-real","female"
"1021","auntie",15883,14,74,"female","4",1,912,6.81563999007433,-0.160939599878871,"female-real","female"
"1022","auntie",19286,17,64,"male","2",1,818,6.70686233660275,-0.34672798590343,"none","female"
"1023","auntie",28551,25,47,"female","2",1,1066,6.97166860472579,-0.66256824214518,"none","female"
"1024","auntie",2759,3,48,"female","2",1,615,6.42162226780652,-0.643989403542724,"none","female"
"1025","auntie",25560,22,120,"female","4",1,681,6.52356230614951,0.693686975834099,"female-real","female"
"1026","auntie",4134,4,77,"male","2",1,569,6.34388043412633,-0.105203084071504,"none","female"
"1027","auntie",17867,16,32,"female","2",1,782,6.66185474054531,-0.941250821182018,"none","female"
"1028","auntie",23744,21,36,"female","7",1,654,6.4831073514572,-0.866935466772194,"male-real","female"
"1029","auntie",25840,22,194,"female","7",1,582,6.36647044773144,2.06852103241583,"male-real","female"
"1030","auntie",6513,6,79,"female","4",1,545,6.30078579466324,-0.0680454068665919,"female-real","female"
"1031","auntie",23745,21,36,"female","7",1,654,6.4831073514572,-0.866935466772194,"male-real","female"
"1032","auntie",16904,15,55,"female","7",1,811,6.69826805411541,-0.513937533325533,"female-real","female"
"1033","auntie",8890,8,78,"male","7",1,845,6.73933662735717,-0.0866242454690478,"female-real","female"
"1034","auntie",9876,9,51,"male","2",1,562,6.33150184989369,-0.588252887735356,"none","female"
"1035","auntie",20586,18,79,"female","4",1,664,6.49828214947643,-0.0680454068665919,"female-real","female"
"1036","auntie",26737,23,117,"female","7",1,630,6.44571981938558,0.637950460026731,"female-real","female"
"1037","auntie",29604,26,34,"male","4",1,684,6.52795791762255,-0.904093143977106,"female-real","female"
"1038","auntie",23822,21,45,"female","2",1,577,6.3578422665081,-0.699725919350092,"none","female"
"1039","auntie",6514,6,79,"female","4",1,545,6.30078579466324,-0.0680454068665919,"female-real","female"
"1040","auntie",7079,7,2,"female","2",1,740,6.60665018619822,-1.49861597925569,"none","female"
"1041","auntie",28260,25,10,"female","7",1,653,6.48157712927643,-1.34998527043605,"male-real","female"
"1042","auntie",4784,5,14,"female","2",1,618,6.42648845745769,-1.27566991602622,"none","female"
"1043","auntie",1635,2,58,"female","2",1,606,6.40687998606931,-0.458201017518165,"none","female"
"1044","auntie",20275,18,42,"female","7",1,558,6.32435896238131,-0.755462435157459,"male-real","female"
"1045","auntie",5580,5,121,"female","7",1,676,6.51619307604296,0.712265814436555,"male-real","female"
"1046","auntie",18133,16,65,"female","7",1,693,6.5410299991899,-0.328149147300974,"female-real","female"
"1047","auntie",8892,8,78,"male","7",1,845,6.73933662735717,-0.0866242454690478,"female-real","female"
"1048","auntie",2028,2,109,"female","7",1,640,6.46146817635372,0.489319751207084,"male-real","female"
"1049","auntie",26738,23,117,"female","7",1,630,6.44571981938558,0.637950460026731,"female-real","female"
"1050","auntie",23092,20,100,"female","4",1,710,6.56526497003536,0.322110203784981,"male-real","female"
"1051","auntie",5955,6,12,"female","2",0,659,6.49072353450251,-1.31282759323114,"none","female"
"1052","auntie",4785,5,14,"female","2",1,618,6.42648845745769,-1.27566991602622,"none","female"
"1053","auntie",9154,8,117,"male","4",1,653,6.48157712927643,0.637950460026731,"male-real","female"
"1054","auntie",4786,5,14,"female","2",1,618,6.42648845745769,-1.27566991602622,"none","female"
"1055","auntie",28261,25,10,"female","7",1,653,6.48157712927643,-1.34998527043605,"male-real","female"
"1056","auntie",20035,18,11,"female","2",1,538,6.28785856016178,-1.33140643183359,"none","female"
"1057","auntie",26315,23,57,"female","4",1,656,6.48616078894409,-0.476779856120621,"male-real","female"
"1058","auntie",18134,16,65,"female","7",1,693,6.5410299991899,-0.328149147300974,"female-real","female"
"1059","auntie",9875,9,51,"male","2",1,562,6.33150184989369,-0.588252887735356,"none","female"
"1060","auntie",19050,17,32,"male","4",1,609,6.4118182677099,-0.941250821182018,"female-real","female"
"1061","auntie",8891,8,78,"male","7",1,845,6.73933662735717,-0.0866242454690478,"female-real","female"
"1062","auntie",26316,23,57,"female","4",1,656,6.48616078894409,-0.476779856120621,"male-real","female"
"1063","auntie",15884,14,74,"female","4",1,912,6.81563999007433,-0.160939599878871,"female-real","female"
"1064","auntie",11468,10,104,"female","7",0,452,6.11368217983223,0.396425558194805,"male-real","female"
"1065","auntie",14743,13,70,"female","4",1,650,6.47697236288968,-0.235254954288695,"female-real","female"
"1066","auntie",198,1,31,"female","7",1,576,6.35610766069589,-0.959829659784474,"male-real","female"
"1067","auntie",20034,18,11,"female","2",1,538,6.28785856016178,-1.33140643183359,"none","female"
"1068","auntie",11467,10,104,"female","7",0,452,6.11368217983223,0.396425558194805,"male-real","female"
"1069","auntie",23734,21,34,"female","4",1,460,6.13122648948314,-0.904093143977106,"female-real","female"
"1070","auntie",9155,8,117,"male","4",1,653,6.48157712927643,0.637950460026731,"male-real","female"
"1071","auntie",6512,6,79,"female","4",1,545,6.30078579466324,-0.0680454068665919,"female-real","female"
"1072","auntie",19051,17,32,"male","4",1,609,6.4118182677099,-0.941250821182018,"female-real","female"
"1073","auntie",4814,5,18,"female","4",1,677,6.51767127291227,-1.2013545616164,"female-real","female"
"1074","auntie",20273,18,42,"female","7",1,558,6.32435896238131,-0.755462435157459,"male-real","female"
"1075","auntie",7078,7,2,"female","2",1,740,6.60665018619822,-1.49861597925569,"none","female"
"1076","auntie",29334,25,195,"female","4",1,666,6.50128967054039,2.08709987101829,"female-real","female"
"1077","auntie",28552,25,47,"female","2",1,1066,6.97166860472579,-0.66256824214518,"none","female"
"1078","auntie",32639,28,156,"male","7",1,714,6.57088296233958,1.36252516552251,"female-real","female"
"1079","auntie",23733,21,34,"female","4",1,460,6.13122648948314,-0.904093143977106,"female-real","female"
"1080","auntie",21824,19,85,"female","2",1,511,6.2363695902037,0.0434276247481433,"none","female"
"1081","auntie",14134,12,189,"female","7",1,662,6.49526555593701,1.97562683940355,"female-real","female"
"1082","auntie",7769,7,88,"female","4",0,715,6.57228254269401,0.0991641405555109,"male-real","female"
"1083","auntie",18132,16,65,"female","7",1,693,6.5410299991899,-0.328149147300974,"female-real","female"
"1084","auntie",20274,18,42,"female","7",1,558,6.32435896238131,-0.755462435157459,"male-real","female"
"1085","auntie",13520,12,64,"female","2",1,1049,6.9555926083963,-0.34672798590343,"none","female"
"1086","auntie",16630,15,22,"female","2",1,542,6.29526600143965,-1.12703920720658,"none","female"
"1087","auntie",6906,6,156,"female","7",1,688,6.53378883793334,1.36252516552251,"male-real","female"
"1088","auntie",22747,20,58,"female","7",1,1088,6.99209642741589,-0.458201017518165,"female-real","female"
"1089","auntie",15192,13,154,"female","7",1,528,6.26909628370626,1.3253674883176,"male-real","female"
"1090","auntie",16073,14,100,"female","7",1,568,6.34212141872115,0.322110203784981,"male-real","female"
"1091","auntie",9719,9,32,"male","4",1,800,6.68461172766793,-0.941250821182018,"female-real","female"
"1092","auntie",4816,5,18,"female","4",1,677,6.51767127291227,-1.2013545616164,"female-real","female"
"1093","auntie",16072,14,100,"female","7",1,568,6.34212141872115,0.322110203784981,"male-real","female"
"1094","auntie",28262,25,10,"female","7",1,653,6.48157712927643,-1.34998527043605,"male-real","female"
"1095","auntie",14742,13,70,"female","4",1,650,6.47697236288968,-0.235254954288695,"female-real","female"
"1096","auntie",14135,12,189,"female","7",1,662,6.49526555593701,1.97562683940355,"female-real","female"
"1097","auntie",11857,11,5,"female","2",1,629,6.44413125670044,-1.44287946344833,"none","female"
"1098","auntie",28126,24,184,"female","7",1,819,6.70808408385307,1.88273264639127,"female-real","female"
"1099","auntie",16629,15,22,"female","2",1,542,6.29526600143965,-1.12703920720658,"none","female"
"1100","auntie",26590,23,90,"female","2",1,554,6.31716468674728,0.136321817760423,"none","female"
"1101","auntie",26592,23,90,"female","2",1,554,6.31716468674728,0.136321817760423,"none","female"
"1102","auntie",14125,12,186,"female","4",1,1011,6.91869521902047,1.91989032359619,"male-real","female"
"1103","auntie",4133,4,77,"male","2",1,569,6.34388043412633,-0.105203084071504,"none","female"
"1104","auntie",32640,28,156,"male","7",1,714,6.57088296233958,1.36252516552251,"female-real","female"
"1105","auntie",9877,9,51,"male","2",1,562,6.33150184989369,-0.588252887735356,"none","female"
"1106","auntie",11858,11,5,"female","2",1,629,6.44413125670044,-1.44287946344833,"none","female"
"1107","auntie",28125,24,184,"female","7",1,819,6.70808408385307,1.88273264639127,"female-real","female"
"1108","auntie",1122,1,179,"female","4",0,512,6.23832462503951,1.789838453379,"female-real","female"
"1109","auntie",14124,12,186,"female","4",1,1011,6.91869521902047,1.91989032359619,"male-real","female"
"1110","auntie",16019,14,94,"female","2",1,835,6.72743172485086,0.210637172170246,"none","female"
"1111","auntie",25389,22,89,"female","2",1,603,6.40191719672719,0.117742979157967,"none","female"
"1112","auntie",3841,4,43,"male","4",1,951,6.85751406254539,-0.736883596555003,"male-real","female"
"1113","auntie",27758,24,91,"female","4",1,618,6.42648845745769,0.154900656362879,"male-real","female"
"1114","auntie",6907,6,156,"female","7",1,688,6.53378883793334,1.36252516552251,"male-real","female"
"1115","auntie",11886,11,10,"female","4",1,602,6.40025744530882,-1.34998527043605,"male-real","female"
"1116","auntie",30427,26,165,"male","7",0,529,6.2709884318583,1.52973471294461,"male-real","female"
"1117","auntie",27759,24,91,"female","4",1,618,6.42648845745769,0.154900656362879,"male-real","female"
"1118","auntie",23732,21,34,"female","4",1,460,6.13122648948314,-0.904093143977106,"female-real","female"
"1119","auntie",2027,2,109,"female","7",1,640,6.46146817635372,0.489319751207084,"male-real","female"
"1120","auntie",1655,2,60,"female","4",1,705,6.55819780281227,-0.421043340313253,"female-real","female"
"1121","auntie",7768,7,88,"female","4",0,715,6.57228254269401,0.0991641405555109,"male-real","female"
"1122","auntie",4447,4,136,"male","7",1,726,6.5875500148248,0.990948393473393,"female-real","female"
"1123","auntie",14643,13,58,"female","2",1,679,6.5206211275587,-0.458201017518165,"none","female"
"1124","auntie",13521,12,64,"female","2",1,1049,6.9555926083963,-0.34672798590343,"none","female"
"1125","auntie",20033,18,11,"female","2",1,538,6.28785856016178,-1.33140643183359,"none","female"
"1126","auntie",18698,16,172,"female","4",1,506,6.22653666928747,1.6597865831618,"male-real","female"
"1127","auntie",7913,7,110,"female","7",1,717,6.57507584059962,0.50789858980954,"female-real","female"
"1128","auntie",16902,15,55,"female","7",1,811,6.69826805411541,-0.513937533325533,"female-real","female"
"1129","auntie",19609,17,107,"male","7",1,675,6.51471269087253,0.452162074002173,"male-real","female"
"1130","auntie",28550,25,47,"female","2",1,1066,6.97166860472579,-0.66256824214518,"none","female"
"1131","auntie",15191,13,154,"female","7",1,528,6.26909628370626,1.3253674883176,"male-real","female"
"1132","auntie",21564,19,54,"female","7",1,532,6.27664348934164,-0.532516371927989,"female-real","female"
"1133","auntie",14642,13,58,"female","2",1,679,6.5206211275587,-0.458201017518165,"none","female"
"1134","auntie",3840,4,43,"male","4",1,951,6.85751406254539,-0.736883596555003,"male-real","female"
"1135","auntie",8939,8,83,"male","2",1,819,6.70808408385307,0.00626994754323157,"none","female"
"1136","auntie",8938,8,83,"male","2",1,819,6.70808408385307,0.00626994754323157,"none","female"
"1137","auntie",31406,27,122,"female","7",1,738,6.60394382460047,0.730844653039011,"female-real","female"
"1138","auntie",8940,8,83,"male","2",1,819,6.70808408385307,0.00626994754323157,"none","female"
"1139","auntie",21563,19,54,"female","7",1,532,6.27664348934164,-0.532516371927989,"female-real","female"
"1140","auntie",29384,26,6,"male","2",1,811,6.69826805411541,-1.42430062484587,"none","female"
"1141","auntie",2448,3,9,"female","4",1,771,6.64768837356333,-1.3685641090385,"male-real","female"
"1142","auntie",16628,15,22,"female","2",1,542,6.29526600143965,-1.12703920720658,"none","female"
"1143","auntie",16018,14,94,"female","2",1,835,6.72743172485086,0.210637172170246,"none","female"
"1144","auntie",20587,18,79,"female","4",1,664,6.49828214947643,-0.0680454068665919,"female-real","female"
"1145","auntie",16074,14,100,"female","7",1,568,6.34212141872115,0.322110203784981,"male-real","female"
"1146","auntie",4448,4,136,"male","7",1,726,6.5875500148248,0.990948393473393,"female-real","female"
"1147","auntie",31407,27,122,"female","7",1,738,6.60394382460047,0.730844653039011,"female-real","female"
"1148","auntie",1121,1,179,"female","4",0,512,6.23832462503951,1.789838453379,"female-real","female"
"1149","auntie",14644,13,58,"female","2",1,679,6.5206211275587,-0.458201017518165,"none","female"
"1150","auntie",10956,10,39,"female","2",1,531,6.27476202124194,-0.811198950964827,"none","female"
"1151","auntie",3270,3,119,"female","7",1,583,6.36818718635049,0.675108137231643,"female-real","female"
"1152","auntie",25388,22,89,"female","2",1,603,6.40191719672719,0.117742979157967,"none","female"
"1153","auntie",27757,24,91,"female","4",1,618,6.42648845745769,0.154900656362879,"male-real","female"
"1154","auntie",11878,11,8,"female","7",1,694,6.5424719605068,-1.38714294764096,"female-real","female"
"1155","auntie",29383,26,6,"male","2",1,811,6.69826805411541,-1.42430062484587,"none","female"
"1156","auntie",22748,20,58,"female","7",1,1088,6.99209642741589,-0.458201017518165,"female-real","female"
"1157","auntie",1656,2,60,"female","4",1,705,6.55819780281227,-0.421043340313253,"female-real","female"
"1158","auntie",16020,14,94,"female","2",1,835,6.72743172485086,0.210637172170246,"none","female"
"1159","auntie",21565,19,54,"female","7",1,532,6.27664348934164,-0.532516371927989,"female-real","female"
"1160","auntie",32104,28,54,"male","2",1,665,6.49978704065585,-0.532516371927989,"none","female"
"1161","auntie",26591,23,90,"female","2",1,554,6.31716468674728,0.136321817760423,"none","female"
"1162","auntie",26314,23,57,"female","4",1,656,6.48616078894409,-0.476779856120621,"male-real","female"
"1163","auntie",29382,26,6,"male","2",1,811,6.69826805411541,-1.42430062484587,"none","female"
"1164","auntie",3842,4,43,"male","4",1,951,6.85751406254539,-0.736883596555003,"male-real","female"
"1165","auntie",3269,3,119,"female","7",1,583,6.36818718635049,0.675108137231643,"female-real","female"
"1166","auntie",751,1,93,"female","2",1,503,6.22059017009974,0.19205833356779,"none","female"
"1167","auntie",1654,2,60,"female","4",1,705,6.55819780281227,-0.421043340313253,"female-real","female"
"1168","auntie",2447,3,9,"female","4",1,771,6.64768837356333,-1.3685641090385,"male-real","female"
"1169","auntie",11877,11,8,"female","7",1,694,6.5424719605068,-1.38714294764096,"female-real","female"
"1170","auntie",19049,17,32,"male","4",1,609,6.4118182677099,-0.941250821182018,"female-real","female"
"1171","auntie",10957,10,39,"female","2",1,531,6.27476202124194,-0.811198950964827,"none","female"
"1172","auntie",32106,28,54,"male","2",1,665,6.49978704065585,-0.532516371927989,"none","female"
"1173","auntie",32105,28,54,"male","2",1,665,6.49978704065585,-0.532516371927989,"none","female"
"1174","auntie",752,1,93,"female","2",1,503,6.22059017009974,0.19205833356779,"none","female"
"1175","auntie",11879,11,8,"female","7",1,694,6.5424719605068,-1.38714294764096,"female-real","female"
"1176","auntie",11887,11,10,"female","4",1,602,6.40025744530882,-1.34998527043605,"male-real","female"
"1177","auntie",11888,11,10,"female","4",1,602,6.40025744530882,-1.34998527043605,"male-real","female"
"1178","auntie",5579,5,121,"female","7",1,676,6.51619307604296,0.712265814436555,"male-real","female"
"1179","auntie",750,1,93,"female","2",1,503,6.22059017009974,0.19205833356779,"none","female"
"1180","auntie",18699,16,172,"female","4",1,506,6.22653666928747,1.6597865831618,"male-real","female"
"1181","auntie",7914,7,110,"female","7",1,717,6.57507584059962,0.50789858980954,"female-real","female"
"1182","auntie",199,1,31,"female","7",1,576,6.35610766069589,-0.959829659784474,"male-real","female"
"1183","auntie",2449,3,9,"female","4",1,771,6.64768837356333,-1.3685641090385,"male-real","female"
"1184","auntie",10958,10,39,"female","2",1,531,6.27476202124194,-0.811198950964827,"none","female"
"1390","bands",27232,24,26,"female","7",1,767,6.64248680136726,-1.05272385279675,"female-real","male"
"1391","bands",19862,17,174,"male","4",1,686,6.53087762772588,1.69694426036672,"female-real","male"
"1392","bands",19861,17,174,"male","4",1,686,6.53087762772588,1.69694426036672,"female-real","male"
"1393","bands",1718,2,67,"female","2",1,838,6.73101810048208,-0.290991470096062,"none","male"
"1394","bands",29618,26,36,"male","7",1,520,6.25382881157547,-0.866935466772194,"male-real","male"
"1395","bands",20748,18,98,"female","7",1,568,6.34212141872115,0.28495252658007,"male-real","male"
"1396","bands",23258,20,140,"female","7",1,913,6.81673588059497,1.06526374788322,"female-real","male"
"1397","bands",13646,12,79,"female","2",1,774,6.65157187358973,-0.0680454068665919,"none","male"
"1398","bands",23257,20,140,"female","7",1,913,6.81673588059497,1.06526374788322,"female-real","male"
"1399","bands",26989,23,185,"female","7",1,665,6.49978704065585,1.90131148499373,"female-real","male"
"1400","bands",32214,28,71,"male","2",1,864,6.76157276880406,-0.216676115686239,"none","male"
"1401","bands",1498,2,40,"female","7",1,644,6.46769872610435,-0.792620112362371,"male-real","male"
"1402","bands",20471,18,66,"female","4",1,614,6.41999492814714,-0.309570308698518,"female-real","male"
"1403","bands",13647,12,79,"female","2",1,774,6.65157187358973,-0.0680454068665919,"none","male"
"1404","bands",2479,3,13,"female","7",1,644,6.46769872610435,-1.29424875462868,"female-real","male"
"1405","bands",26988,23,185,"female","7",1,665,6.49978704065585,1.90131148499373,"female-real","male"
"1406","bands",13645,12,79,"female","2",1,774,6.65157187358973,-0.0680454068665919,"none","male"
"1407","bands",13683,12,84,"female","7",1,1132,7.03174125876313,0.0248487861456874,"female-real","male"
"1408","bands",21744,19,75,"female","2",1,534,6.2803958389602,-0.142360761276415,"none","male"
"1409","bands",22554,20,34,"female","2",1,860,6.75693238924755,-0.904093143977106,"none","male"
"1410","bands",24055,21,74,"female","2",1,1137,7.03614849375054,-0.160939599878871,"none","male"
"1411","bands",27231,24,26,"female","7",1,767,6.64248680136726,-1.05272385279675,"female-real","male"
"1412","bands",9365,8,173,"male","7",0,711,6.56667242980324,1.67836542176426,"female-real","male"
"1413","bands",17127,15,84,"female","2",1,539,6.289715570909,0.0248487861456874,"none","male"
"1414","bands",16354,14,175,"female","4",0,655,6.48463523563525,1.71552309896917,"female-real","male"
"1415","bands",21743,19,75,"female","2",1,534,6.2803958389602,-0.142360761276415,"none","male"
"1416","bands",22552,20,34,"female","2",1,860,6.75693238924755,-0.904093143977106,"none","male"
"1417","bands",26124,23,35,"female","2",1,514,6.24222326545517,-0.88551430537465,"none","male"
"1418","bands",21745,19,75,"female","2",1,534,6.2803958389602,-0.142360761276415,"none","male"
"1419","bands",24741,22,14,"female","2",1,592,6.38350663488401,-1.27566991602622,"none","male"
"1420","bands",4892,5,29,"female","4",1,703,6.55535689181067,-0.996987336989386,"female-real","male"
"1421","bands",17545,15,179,"female","7",1,457,6.12468339089421,1.789838453379,"female-real","male"
"1422","bands",31759,28,8,"male","4",0,1121,7.02197642307216,-1.38714294764096,"male-real","male"
"1423","bands",742,1,92,"female","2",1,549,6.30809844150953,0.173479494965334,"none","male"
"1424","bands",18236,16,76,"female","4",1,582,6.36647044773144,-0.12378192267396,"male-real","male"
"1425","bands",27136,24,14,"female","2",1,738,6.60394382460047,-1.27566991602622,"none","male"
"1426","bands",13119,12,18,"female","4",1,771,6.64768837356333,-1.2013545616164,"male-real","male"
"1427","bands",2385,3,2,"female","2",1,586,6.37331978957701,-1.49861597925569,"none","male"
"1428","bands",2386,3,2,"female","2",1,586,6.37331978957701,-1.49861597925569,"none","male"
"1429","bands",23887,21,53,"female","4",1,528,6.26909628370626,-0.551095210530445,"female-real","male"
"1430","bands",24053,21,74,"female","2",1,1137,7.03614849375054,-0.160939599878871,"none","male"
"1431","bands",13684,12,84,"female","7",1,1132,7.03174125876313,0.0248487861456874,"female-real","male"
"1432","bands",12104,11,40,"female","2",1,744,6.61204103483309,-0.792620112362371,"none","male"
"1433","bands",29212,25,159,"female","4",1,750,6.62007320653036,1.41826168132988,"female-real","male"
"1434","bands",9392,8,181,"male","4",1,615,6.42162226780652,1.82699613058391,"male-real","male"
"1435","bands",14211,13,6,"female","4",1,747,6.61606518513282,-1.42430062484587,"female-real","male"
"1436","bands",4894,5,29,"female","4",1,703,6.55535689181067,-0.996987336989386,"female-real","male"
"1437","bands",20747,18,98,"female","7",1,568,6.34212141872115,0.28495252658007,"male-real","male"
"1438","bands",15075,13,122,"female","7",1,647,6.4723462945009,0.730844653039011,"male-real","male"
"1439","bands",25810,22,183,"female","4",1,630,6.44571981938558,1.86415380778882,"female-real","male"
"1440","bands",2477,3,13,"female","7",1,644,6.46769872610435,-1.29424875462868,"female-real","male"
"1441","bands",31214,27,86,"female","4",1,653,6.48157712927643,0.0620064633505992,"male-real","male"
"1442","bands",10374,9,127,"male","4",1,669,6.50578406012823,0.82373884605129,"female-real","male"
"1443","bands",13118,12,18,"female","4",1,771,6.64768837356333,-1.2013545616164,"male-real","male"
"1444","bands",22553,20,34,"female","2",1,860,6.75693238924755,-0.904093143977106,"none","male"
"1445","bands",28597,25,52,"female","2",1,551,6.31173480915291,-0.5696740491329,"none","male"
"1446","bands",9903,9,54,"male","2",1,481,6.17586727010576,-0.532516371927989,"none","male"
"1447","bands",20231,18,37,"female","2",1,475,6.16331480403464,-0.848356628169739,"none","male"
"1448","bands",18234,16,76,"female","4",1,582,6.36647044773144,-0.12378192267396,"male-real","male"
"1449","bands",9366,8,173,"male","7",0,711,6.56667242980324,1.67836542176426,"female-real","male"
"1450","bands",14210,13,6,"female","4",1,747,6.61606518513282,-1.42430062484587,"female-real","male"
"1451","bands",29479,26,16,"male","4",1,753,6.62406522779989,-1.23851223882131,"female-real","male"
"1452","bands",24066,21,75,"female","7",1,660,6.49223983502047,-0.142360761276415,"male-real","male"
"1453","bands",32215,28,71,"male","2",1,864,6.76157276880406,-0.216676115686239,"none","male"
"1454","bands",10373,9,127,"male","4",1,669,6.50578406012823,0.82373884605129,"female-real","male"
"1455","bands",1887,2,88,"female","4",1,700,6.5510803350434,0.0991641405555109,"female-real","male"
"1456","bands",19915,17,188,"male","7",1,634,6.45204895443723,1.9570480008011,"male-real","male"
"1457","bands",25422,22,93,"female","7",1,618,6.42648845745769,0.19205833356779,"male-real","male"
"1458","bands",20473,18,66,"female","4",1,614,6.41999492814714,-0.309570308698518,"female-real","male"
"1459","bands",18051,16,54,"female","2",1,525,6.26339826259162,-0.532516371927989,"none","male"
"1460","bands",24740,22,14,"female","2",1,592,6.38350663488401,-1.27566991602622,"none","male"
"1461","bands",28867,25,85,"female","7",0,684,6.52795791762255,0.0434276247481433,"male-real","male"
"1462","bands",9391,8,181,"male","4",1,615,6.42162226780652,1.82699613058391,"male-real","male"
"1463","bands",29617,26,36,"male","7",1,520,6.25382881157547,-0.866935466772194,"male-real","male"
"1464","bands",27230,24,26,"female","7",1,767,6.64248680136726,-1.05272385279675,"female-real","male"
"1465","bands",22681,20,50,"female","4",1,890,6.79122146272619,-0.606831726337812,"male-real","male"
"1466","bands",25809,22,183,"female","4",1,630,6.44571981938558,1.86415380778882,"female-real","male"
"1467","bands",743,1,92,"female","2",1,549,6.30809844150953,0.173479494965334,"none","male"
"1468","bands",18052,16,54,"female","2",1,525,6.26339826259162,-0.532516371927989,"none","male"
"1469","bands",28595,25,52,"female","2",1,551,6.31173480915291,-0.5696740491329,"none","male"
"1470","bands",27992,24,145,"female","4",1,686,6.53087762772588,1.1581579408955,"male-real","male"
"1471","bands",18053,16,54,"female","2",1,525,6.26339826259162,-0.532516371927989,"none","male"
"1472","bands",1138,1,183,"female","4",0,515,6.24416690066374,1.86415380778882,"female-real","male"
"1473","bands",2478,3,13,"female","7",1,644,6.46769872610435,-1.29424875462868,"female-real","male"
"1474","bands",29213,25,159,"female","4",1,750,6.62007320653036,1.41826168132988,"female-real","male"
"1475","bands",741,1,92,"female","2",1,549,6.30809844150953,0.173479494965334,"none","male"
"1476","bands",24054,21,74,"female","2",1,1137,7.03614849375054,-0.160939599878871,"none","male"
"1477","bands",12103,11,40,"female","2",1,744,6.61204103483309,-0.792620112362371,"none","male"
"1478","bands",18235,16,76,"female","4",1,582,6.36647044773144,-0.12378192267396,"male-real","male"
"1479","bands",15682,14,47,"female","7",1,1187,7.07918439460967,-0.66256824214518,"male-real","male"
"1480","bands",6688,6,100,"female","2",1,762,6.63594655568665,0.322110203784981,"none","male"
"1481","bands",15514,14,23,"female","2",1,536,6.2841341610708,-1.10846036860412,"none","male"
"1482","bands",14599,13,53,"female","2",1,683,6.52649485957079,-0.551095210530445,"none","male"
"1483","bands",23886,21,53,"female","4",1,528,6.26909628370626,-0.551095210530445,"female-real","male"
"1484","bands",28596,25,52,"female","2",1,551,6.31173480915291,-0.5696740491329,"none","male"
"1485","bands",9904,9,54,"male","2",1,481,6.17586727010576,-0.532516371927989,"none","male"
"1486","bands",1886,2,88,"female","4",1,700,6.5510803350434,0.0991641405555109,"female-real","male"
"1487","bands",22051,19,128,"female","4",1,393,5.97380961186926,0.842317684653746,"male-real","male"
"1488","bands",5164,5,60,"female","7",1,870,6.76849321164863,-0.421043340313253,"male-real","male"
"1489","bands",20749,18,98,"female","7",1,568,6.34212141872115,0.28495252658007,"male-real","male"
"1490","bands",12279,11,60,"female","7",1,397,5.98393628068719,-0.421043340313253,"female-real","male"
"1491","bands",17125,15,84,"female","2",1,539,6.289715570909,0.0248487861456874,"none","male"
"1492","bands",1497,2,40,"female","7",1,644,6.46769872610435,-0.792620112362371,"male-real","male"
"1493","bands",7002,6,181,"female","4",1,576,6.35610766069589,1.82699613058391,"female-real","male"
"1494","bands",15074,13,122,"female","7",1,647,6.4723462945009,0.730844653039011,"male-real","male"
"1495","bands",19916,17,188,"male","7",1,634,6.45204895443723,1.9570480008011,"male-real","male"
"1496","bands",15513,14,23,"female","2",1,536,6.2841341610708,-1.10846036860412,"none","male"
"1497","bands",22180,19,162,"female","7",1,772,6.64898455002478,1.47399819713725,"female-real","male"
"1498","bands",16795,15,43,"female","4",0,528,6.26909628370626,-0.736883596555003,"male-real","male"
"1499","bands",26999,23,189,"female","4",1,567,6.34035930372775,1.97562683940355,"male-real","male"
"1500","bands",3797,4,37,"male","7",1,761,6.63463335786169,-0.848356628169739,"female-real","male"
"1501","bands",23885,21,53,"female","4",1,528,6.26909628370626,-0.551095210530445,"female-real","male"
"1502","bands",12102,11,40,"female","2",1,744,6.61204103483309,-0.792620112362371,"none","male"
"1503","bands",13117,12,18,"female","4",1,771,6.64768837356333,-1.2013545616164,"male-real","male"
"1504","bands",24065,21,75,"female","7",1,660,6.49223983502047,-0.142360761276415,"male-real","male"
"1505","bands",12280,11,60,"female","7",1,397,5.98393628068719,-0.421043340313253,"female-real","male"
"1506","bands",856,1,110,"female","7",0,400,5.99146454710798,0.50789858980954,"male-real","male"
"1507","bands",22683,20,50,"female","4",1,890,6.79122146272619,-0.606831726337812,"male-real","male"
"1508","bands",6686,6,100,"female","2",1,762,6.63594655568665,0.322110203784981,"none","male"
"1509","bands",16794,15,43,"female","4",0,528,6.26909628370626,-0.736883596555003,"male-real","male"
"1510","bands",15512,14,23,"female","2",1,536,6.2841341610708,-1.10846036860412,"none","male"
"1511","bands",1137,1,183,"female","4",0,515,6.24416690066374,1.86415380778882,"female-real","male"
"1512","bands",11667,10,155,"female","7",1,583,6.36818718635049,1.34394632692005,"male-real","male"
"1513","bands",27138,24,14,"female","2",1,738,6.60394382460047,-1.27566991602622,"none","male"
"1514","bands",31758,28,8,"male","4",0,1121,7.02197642307216,-1.38714294764096,"male-real","male"
"1515","bands",24067,21,75,"female","7",1,660,6.49223983502047,-0.142360761276415,"male-real","male"
"1516","bands",29532,26,23,"male","2",1,646,6.4707995037826,-1.10846036860412,"none","male"
"1517","bands",17126,15,84,"female","2",1,539,6.289715570909,0.0248487861456874,"none","male"
"1518","bands",28868,25,85,"female","7",0,684,6.52795791762255,0.0434276247481433,"male-real","male"
"1519","bands",15681,14,47,"female","7",1,1187,7.07918439460967,-0.66256824214518,"male-real","male"
"1520","bands",16353,14,175,"female","4",0,655,6.48463523563525,1.71552309896917,"female-real","male"
"1521","bands",13682,12,84,"female","7",1,1132,7.03174125876313,0.0248487861456874,"female-real","male"
"1522","bands",26126,23,35,"female","2",1,514,6.24222326545517,-0.88551430537465,"none","male"
"1523","bands",26998,23,189,"female","4",1,567,6.34035930372775,1.97562683940355,"male-real","male"
"1524","bands",5162,5,60,"female","7",1,870,6.76849321164863,-0.421043340313253,"male-real","male"
"1525","bands",1719,2,67,"female","2",1,838,6.73101810048208,-0.290991470096062,"none","male"
"1526","bands",5163,5,60,"female","7",1,870,6.76849321164863,-0.421043340313253,"male-real","male"
"1527","bands",20472,18,66,"female","4",1,614,6.41999492814714,-0.309570308698518,"female-real","male"
"1528","bands",10675,10,7,"female","2",1,491,6.19644412779452,-1.40572178624341,"none","male"
"1529","bands",20232,18,37,"female","2",1,475,6.16331480403464,-0.848356628169739,"none","male"
"1530","bands",29533,26,23,"male","2",1,646,6.4707995037826,-1.10846036860412,"none","male"
"1531","bands",29616,26,36,"male","7",1,520,6.25382881157547,-0.866935466772194,"male-real","male"
"1532","bands",1888,2,88,"female","4",1,700,6.5510803350434,0.0991641405555109,"female-real","male"
"1533","bands",26125,23,35,"female","2",1,514,6.24222326545517,-0.88551430537465,"none","male"
"1534","bands",857,1,110,"female","7",0,400,5.99146454710798,0.50789858980954,"male-real","male"
"1535","bands",31215,27,86,"female","4",1,653,6.48157712927643,0.0620064633505992,"male-real","male"
"1536","bands",18714,16,176,"female","7",0,496,6.20657592672493,1.73410193757163,"female-real","male"
"1537","bands",7190,7,18,"female","4",1,640,6.46146817635372,-1.2013545616164,"male-real","male"
"1538","bands",16796,15,43,"female","4",0,528,6.26909628370626,-0.736883596555003,"male-real","male"
"1539","bands",1499,2,40,"female","7",1,644,6.46769872610435,-0.792620112362371,"male-real","male"
"1540","bands",27137,24,14,"female","2",1,738,6.60394382460047,-1.27566991602622,"none","male"
"1541","bands",31757,28,8,"male","4",0,1121,7.02197642307216,-1.38714294764096,"male-real","male"
"1542","bands",25423,22,93,"female","7",1,618,6.42648845745769,0.19205833356779,"male-real","male"
"1543","bands",4893,5,29,"female","4",1,703,6.55535689181067,-0.996987336989386,"female-real","male"
"1544","bands",29478,26,16,"male","4",1,753,6.62406522779989,-1.23851223882131,"female-real","male"
"1545","bands",4601,4,174,"male","4",1,707,6.56103066589657,1.69694426036672,"male-real","male"
"1546","bands",3796,4,37,"male","7",1,761,6.63463335786169,-0.848356628169739,"female-real","male"
"1547","bands",7599,7,69,"female","2",1,617,6.42486902390539,-0.253833792891151,"none","male"
"1548","bands",30646,27,15,"female","2",1,745,6.61338421837956,-1.25709107742377,"none","male"
"1549","bands",9744,9,34,"male","7",1,681,6.52356230614951,-0.904093143977106,"male-real","male"
"1550","bands",2995,3,77,"female","4",1,780,6.65929391968364,-0.105203084071504,"male-real","male"
"1551","bands",27993,24,145,"female","4",1,686,6.53087762772588,1.1581579408955,"male-real","male"
"1552","bands",31322,27,100,"female","7",1,543,6.29710931993394,0.322110203784981,"female-real","male"
"1553","bands",14597,13,53,"female","2",1,683,6.52649485957079,-0.551095210530445,"none","male"
"1554","bands",32216,28,71,"male","2",1,864,6.76157276880406,-0.216676115686239,"none","male"
"1555","bands",9902,9,54,"male","2",1,481,6.17586727010576,-0.532516371927989,"none","male"
"1556","bands",12281,11,60,"female","7",1,397,5.98393628068719,-0.421043340313253,"female-real","male"
"1557","bands",11668,10,155,"female","7",1,583,6.36818718635049,1.34394632692005,"male-real","male"
"1558","bands",11615,10,142,"female","4",1,556,6.32076829425058,1.10242142508813,"female-real","male"
"1559","bands",6812,6,131,"female","7",1,747,6.61606518513282,0.898054200461113,"male-real","male"
"1560","bands",3868,4,46,"male","2",1,978,6.88550967003482,-0.681147080747636,"none","male"
"1561","bands",7598,7,69,"female","2",1,617,6.42486902390539,-0.253833792891151,"none","male"
"1562","bands",22682,20,50,"female","4",1,890,6.79122146272619,-0.606831726337812,"male-real","male"
"1563","bands",30644,27,15,"female","2",1,745,6.61338421837956,-1.25709107742377,"none","male"
"1564","bands",1717,2,67,"female","2",1,838,6.73101810048208,-0.290991470096062,"none","male"
"1565","bands",29480,26,16,"male","4",1,753,6.62406522779989,-1.23851223882131,"female-real","male"
"1566","bands",7191,7,18,"female","4",1,640,6.46146817635372,-1.2013545616164,"male-real","male"
"1567","bands",31321,27,100,"female","7",1,543,6.29710931993394,0.322110203784981,"female-real","male"
"1568","bands",18715,16,176,"female","7",0,496,6.20657592672493,1.73410193757163,"female-real","male"
"1569","bands",3869,4,46,"male","2",1,978,6.88550967003482,-0.681147080747636,"none","male"
"1570","bands",22052,19,128,"female","4",1,393,5.97380961186926,0.842317684653746,"male-real","male"
"1571","bands",28866,25,85,"female","7",0,684,6.52795791762255,0.0434276247481433,"male-real","male"
"1572","bands",4602,4,174,"male","4",1,707,6.56103066589657,1.69694426036672,"male-real","male"
"1573","bands",6687,6,100,"female","2",1,762,6.63594655568665,0.322110203784981,"none","male"
"1574","bands",32707,28,173,"male","7",1,726,6.5875500148248,1.67836542176426,"female-real","male"
"1575","bands",11616,10,142,"female","4",1,556,6.32076829425058,1.10242142508813,"female-real","male"
"1576","bands",2996,3,77,"female","4",1,780,6.65929391968364,-0.105203084071504,"male-real","male"
"1577","bands",7387,7,43,"female","7",1,541,6.29341927884648,-0.736883596555003,"female-real","male"
"1578","bands",24739,22,14,"female","2",1,592,6.38350663488401,-1.27566991602622,"none","male"
"1579","bands",9745,9,34,"male","7",1,681,6.52356230614951,-0.904093143977106,"male-real","male"
